"Subj","List","BLOCK","TRIAL","ITEM","ItemType","Cond","TargetCatNum","TargetCat","PicID","DistCatNum","DistCat","Dist","DistLC","DistList","DistSet","TargetAnswer","Response","Accuracy","RT"
"4",5,1,2,7,"Exp","SemRelG",7,"transportation","bicycleSRG.png",7,"transportation","Schiff","Fam",0,0,"Fahrrad","Fahrrad",1,895
"4",5,1,3,38,"Exp","SemUnRelG",2,"tools","wrenchSUG.png",3,"vegetables","Zwiebel","Fam",0,0,"Schraubenschlüssel","Schraubenzieher",0,1739
"4",5,1,9,23,"Exp","SemRelG",14,"electronic devices","laptopSRG.png",14,"electronic devices","Drucker","Fam",0,0,"Laptop","Laptop",1,979
"4",5,1,12,104,"Exp","Baseline",7,"transportation","planeBAS.png",0,"0","Garpe","Untrained",0,0,"Flugzeug","Flugzeug",1,745
"4",5,1,15,48,"Exp","SemUnRelG",15,"plants","fernSUG.png",10,"clothes","Rock","Fam",0,0,"Farn","Farn",1,950
"4",5,1,16,97,"Exp","Baseline",3,"vegetables","eggplantBAS.png",0,"0","Schnilp","Untrained",0,0,"Aubergine","Aubergine",1,939
"4",5,1,23,46,"Exp","SemUnRelG",13,"insects","bumblebeeSUG.png",10,"clothes","Kleid","Fam",0,0,"Hummel","Hummel",1,890
"4",5,1,24,20,"Exp","SemRelG",11,"tableware","forkSRG.png",11,"tableware","Glas","Fam",0,0,"Gabel","Gabel",1,1437
"4",5,1,28,3,"Exp","SemRelG",3,"vegetables","paprikaSRG.png",3,"vegetables","Kartoffel","Fam",0,0,"Paprika","Paprika",1,1023
"4",5,1,29,108,"Exp","Baseline",10,"clothes","sockBAS.png",0,"0","Schnist","Untrained",0,0,"Socke","Socke",1,989
"4",5,2,35,31,"Exp","SemUnRelG",7,"transportation","bicycleSUG.png",15,"plants","Moos","Fam",0,0,"Fahrrad","Fahrrad",1,738
"4",5,2,38,98,"Exp","Baseline",3,"vegetables","broccoliBAS.png",0,"0","Trange","Untrained",0,0,"Brokkoli","Brokkoli",1,1149
"4",5,2,39,45,"Exp","SemUnRelG",12,"shapes","cubeSUG.png",7,"transportation","Schiff","Fam",0,0,"Würfel","Rechteck",0,1002
"4",5,2,45,9,"Exp","SemRelG",10,"clothes","jacketSRG.png",10,"clothes","Hose","Fam",0,0,"Jacke","Jacke",1,1207
"4",5,2,50,119,"Exp","Baseline",14,"electronic devices","laptopBAS.png",0,"0","Nelft","Untrained",0,0,"Laptop","Laptop",1,1186
"4",5,2,55,106,"Exp","Baseline",10,"clothes","suitBAS.png",0,"0","Bolst","Untrained",0,0,"Anzug","Anzug",1,1309
"4",5,2,59,27,"Exp","SemUnRelG",3,"vegetables","paprikaSUG.png",14,"electronic devices","Drucker","Fam",0,0,"Paprika","Paprika",1,764
"4",5,2,60,5,"Exp","SemRelG",7,"transportation","boatSRG.png",7,"transportation","Auto","Fam",0,0,"Boot","Boot",1,1549
"4",5,3,68,24,"Exp","SemRelG",15,"plants","fernSRG.png",15,"plants","Moos","Fam",0,0,"Farn","Farn",1,811
"4",5,3,75,105,"Exp","Baseline",10,"clothes","jacketBAS.png",0,"0","Schnerp","Untrained",0,0,"Jacke","Jacke",1,937
"4",5,3,76,22,"Exp","SemRelG",13,"insects","bumblebeeSRG.png",13,"insects","Käfer","Fam",0,0,"Hummel","Hummel",1,714
"4",5,3,80,4,"Exp","SemRelG",3,"vegetables","pumpkinSRG.png",3,"vegetables","Gurke","Fam",0,0,"Kürbis","Kürbis",1,960
"4",5,3,86,110,"Exp","Baseline",2,"tools","wrenchBAS.png",0,"0","Lörme","Untrained",0,0,"Schraubenschlüssel",NA,0,-1
"4",5,3,88,16,"Exp","SemRelG",5,"fruit","kiwiSRG.png",5,"fruit","Banane","Fam",0,0,"Kiwi","Kiwi",1,861
"4",5,3,90,99,"Exp","Baseline",3,"vegetables","paprikaBAS.png",0,"0","Kremster","Untrained",0,0,"Paprika","Paprika",1,790
"4",5,4,99,8,"Exp","SemRelG",7,"transportation","planeSRG.png",7,"transportation","Zug","Fam",0,0,"Flugzeug","Flugzeug",1,777
"4",5,4,107,36,"Exp","SemUnRelG",10,"clothes","sockSUG.png",9,"drinks","Milch","Fam",0,0,"Socke","Socke",1,937
"4",5,4,111,100,"Exp","Baseline",3,"vegetables","pumpkinBAS.png",0,"0","Gipke","Untrained",0,0,"Kürbis","Kürbis",1,1013
"4",5,4,112,6,"Exp","SemRelG",7,"transportation","helicopterSRG.png",7,"transportation","Bus","Fam",0,0,"Hubschrauber","Hubschrauber",1,1403
"4",5,4,117,11,"Exp","SemRelG",10,"clothes","shirtSRG.png",10,"clothes","Rock","Fam",0,0,"Hemd","Hemd",1,743
"4",5,4,119,47,"Exp","SemUnRelG",14,"electronic devices","laptopSUG.png",3,"vegetables","Kartoffel","Fam",0,0,"Laptop","Laptop",1,882
"4",5,5,121,13,"Exp","SemRelG",1,"animals","goatSRG.png",1,"animals","Pferd","Fam",0,0,"Ziege","Ziege",1,955
"4",5,5,123,29,"Exp","SemUnRelG",7,"transportation","boatSUG.png",5,"fruit","Banane","Fam",0,0,"Boot","Boot",1,774
"4",5,5,124,112,"Exp","Baseline",5,"fruit","kiwiBAS.png",0,"0","Gaspe","Untrained",0,0,"Kiwi","Kiwi",1,871
"4",5,5,132,116,"Exp","Baseline",11,"tableware","forkBAS.png",0,"0","Krülp","Untrained",0,0,"Gabel","Gabel",1,1225
"4",5,5,133,30,"Exp","SemUnRelG",7,"transportation","helicopterSUG.png",8,"human head","Ohr","Fam",0,0,"Hubschrauber","Hubschrauber",1,1160
"4",5,5,136,111,"Exp","Baseline",4,"musical instruments","tromboneBAS.png",0,"0","Nipter","Untrained",0,0,"Posaune",NA,0,-1
"4",5,5,142,40,"Exp","SemUnRelG",5,"fruit","kiwiSUG.png",10,"clothes","Hose","Fam",0,0,"Kiwi","Kiwi",1,774
"4",5,5,148,18,"Exp","SemRelG",8,"human head","eyebrowSRG.png",8,"human head","Ohr","Fam",0,0,"Augenbraue","Augenbraue",1,1063
"4",5,6,152,103,"Exp","Baseline",7,"transportation","bicycleBAS.png",0,"0","Belsk","Untrained",0,0,"Fahrrad","Fahrrad",1,835
"4",5,6,159,42,"Exp","SemUnRelG",8,"human head","eyebrowSUG.png",3,"vegetables","Tomate","Fam",0,0,"Augenbraue","Augenbraue",1,740
"4",5,6,160,113,"Exp","Baseline",6,"furniture","couchBAS.png",0,"0","Nipst","Untrained",0,0,"Sofa","Sofa",1,709
"4",5,6,167,35,"Exp","SemUnRelG",10,"clothes","shirtSUG.png",12,"shapes","Trapez","Fam",0,0,"Hemd","Hemd",1,832
"4",5,6,178,10,"Exp","SemRelG",10,"clothes","suitSRG.png",10,"clothes","Mantel","Fam",0,0,"Anzug","Anzug",1,1490
"4",5,6,180,39,"Exp","SemUnRelG",4,"musical instruments","tromboneSUG.png",7,"transportation","Auto","Fam",0,0,"Posaune","Posaune",1,1868
"4",5,7,189,37,"Exp","SemUnRelG",1,"animals","goatSUG.png",10,"clothes","Mantel","Fam",0,0,"Ziege","Ziege",1,793
"4",5,7,193,32,"Exp","SemUnRelG",7,"transportation","planeSUG.png",13,"insects","Käfer","Fam",0,0,"Flugzeug","Flugzeug",1,858
"4",5,7,199,109,"Exp","Baseline",1,"animals","goatBAS.png",0,"0","Zonte","Untrained",0,0,"Ziege","Ziege",1,740
"4",5,7,200,15,"Exp","SemRelG",4,"musical instruments","tromboneSRG.png",4,"musical instruments","Trommel","Fam",0,0,"Posaune","Posaune",1,1983
"4",5,7,201,44,"Exp","SemUnRelG",11,"tableware","forkSUG.png",7,"transportation","Bus","Fam",0,0,"Gabel","Gabel",1,795
"4",5,7,203,118,"Exp","Baseline",13,"insects","bumblebeeBAS.png",0,"0","Schrieg","Untrained",0,0,"Hummel","Hummel",1,835
"4",5,7,204,1,"Exp","SemRelG",3,"vegetables","eggplantSRG.png",3,"vegetables","Zwiebel","Fam",0,0,"Aubergine","Aubergine",1,756
"4",5,7,208,12,"Exp","SemRelG",10,"clothes","sockSRG.png",10,"clothes","Kleid","Fam",0,0,"Socke","Socke",1,743
"4",5,7,210,114,"Exp","Baseline",8,"human head","eyebrowBAS.png",0,"0","Danpel","Untrained",0,0,"Augenbraue","Augenbraue",1,1000
"4",5,8,214,101,"Exp","Baseline",7,"transportation","boatBAS.png",0,"0","Krebbel","Untrained",0,0,"Boot","Boot",1,777
"4",5,8,217,41,"Exp","SemUnRelG",6,"furniture","couchSUG.png",3,"vegetables","Gurke","Fam",0,0,"Sofa","Sofa",1,646
"4",5,8,220,14,"Exp","SemRelG",2,"tools","wrenchSRG.png",2,"tools","Axt","Fam",0,0,"Schraubenschlüssel","Schraubenz...schlüssel",0,1257
"4",5,8,225,25,"Exp","SemUnRelG",3,"vegetables","eggplantSUG.png",2,"tools","Axt","Fam",0,0,"Aubergine","Aubergine",1,732
"4",5,8,231,120,"Exp","Baseline",15,"plants","fernBAS.png",0,"0","Krutt","Untrained",0,0,"Farn","Farn",1,2302
"4",5,8,234,33,"Exp","SemUnRelG",10,"clothes","jacketSUG.png",4,"musical instruments","Trommel","Fam",0,0,"Jacke","Jacke",1,703
"4",5,8,237,115,"Exp","Baseline",9,"drinks","juiceBAS.png",0,"0","Grölf","Untrained",0,0,"Saft","Saft",1,803
"4",5,9,246,26,"Exp","SemUnRelG",3,"vegetables","broccoliSUG.png",1,"animals","Pferd","Fam",0,0,"Brokkoli","Brokkoli",1,790
"4",5,9,251,102,"Exp","Baseline",7,"transportation","helicopterBAS.png",0,"0","Faum","Untrained",0,0,"Hubschrauber","Hubschrauber",1,876
"4",5,9,264,107,"Exp","Baseline",10,"clothes","shirtBAS.png",0,"0","Kritte","Untrained",0,0,"Hemd","Hemd",1,798
"4",5,9,265,21,"Exp","SemRelG",12,"shapes","cubeSRG.png",12,"shapes","Trapez","Fam",0,0,"Würfel","Würfel",1,1123
"4",5,10,273,43,"Exp","SemUnRelG",9,"drinks","juiceSUG.png",7,"transportation","Zug","Fam",0,0,"Saft","Saft",1,740
"4",5,10,280,2,"Exp","SemRelG",3,"vegetables","broccoliSRG.png",3,"vegetables","Tomate","Fam",0,0,"Brokkoli","Brokkoli",1,777
"4",5,10,286,117,"Exp","Baseline",12,"shapes","cubeBAS.png",0,"0","Struge","Untrained",0,0,"Würfel","Würfel",1,1089
"4",5,10,287,34,"Exp","SemUnRelG",10,"clothes","suitSUG.png",11,"tableware","Glas","Fam",0,0,"Anzug","Anzug",1,1254
"4",5,10,288,17,"Exp","SemRelG",6,"furniture","couchSRG.png",6,"furniture","Schrank","Fam",0,0,"Sofa","Sofa",1,764
"4",5,10,294,28,"Exp","SemUnRelG",3,"vegetables","pumpkinSUG.png",6,"furniture","Schrank","Fam",0,0,"Kürbis","Kürbis",1,748
"4",5,10,300,19,"Exp","SemRelG",9,"drinks","juiceSRG.png",9,"drinks","Milch","Fam",0,0,"Saft","Saft",1,744
"5",5,1,2,7,"Exp","SemRelG",7,"transportation","bicycleSRG.png",7,"transportation","Schiff","Fam",0,0,"Fahrrad","Fahrrad",1,703
"5",5,1,3,38,"Exp","SemUnRelG",2,"tools","wrenchSUG.png",3,"vegetables","Zwiebel","Fam",0,0,"Schraubenschlüssel","Schraubenschlüssel",1,1791
"5",5,1,9,23,"Exp","SemRelG",14,"electronic devices","laptopSRG.png",14,"electronic devices","Drucker","Fam",0,0,"Laptop","Computer",0,1073
"5",5,1,12,104,"Exp","Baseline",7,"transportation","planeBAS.png",0,"0","Garpe","Untrained",0,0,"Flugzeug","Flugzeug",1,669
"5",5,1,15,48,"Exp","SemUnRelG",15,"plants","fernSUG.png",10,"clothes","Rock","Fam",0,0,"Farn","Farn",1,730
"5",5,1,16,97,"Exp","Baseline",3,"vegetables","eggplantBAS.png",0,"0","Schnilp","Untrained",0,0,"Aubergine","Aubergine",1,871
"5",5,1,23,46,"Exp","SemUnRelG",13,"insects","bumblebeeSUG.png",10,"clothes","Kleid","Fam",0,0,"Hummel","Hummel",1,790
"5",5,1,24,20,"Exp","SemRelG",11,"tableware","forkSRG.png",11,"tableware","Glas","Fam",0,0,"Gabel","Gabel",1,861
"5",5,1,28,3,"Exp","SemRelG",3,"vegetables","paprikaSRG.png",3,"vegetables","Kartoffel","Fam",0,0,"Paprika","Paprika",1,793
"5",5,1,29,108,"Exp","Baseline",10,"clothes","sockBAS.png",0,"0","Schnist","Untrained",0,0,"Socke","Socke",1,785
"5",5,2,35,31,"Exp","SemUnRelG",7,"transportation","bicycleSUG.png",15,"plants","Moos","Fam",0,0,"Fahrrad","Fahrrad",1,627
"5",5,2,38,98,"Exp","Baseline",3,"vegetables","broccoliBAS.png",0,"0","Trange","Untrained",0,0,"Brokkoli","Brokkoli",1,945
"5",5,2,39,45,"Exp","SemUnRelG",12,"shapes","cubeSUG.png",7,"transportation","Schiff","Fam",0,0,"Würfel",NA,0,-1
"5",5,2,45,9,"Exp","SemRelG",10,"clothes","jacketSRG.png",10,"clothes","Hose","Fam",0,0,"Jacke","Jacke",1,772
"5",5,2,50,119,"Exp","Baseline",14,"electronic devices","laptopBAS.png",0,"0","Nelft","Untrained",0,0,"Laptop","Computer",0,835
"5",5,2,55,106,"Exp","Baseline",10,"clothes","suitBAS.png",0,"0","Bolst","Untrained",0,0,"Anzug","Anzug",1,858
"5",5,2,59,27,"Exp","SemUnRelG",3,"vegetables","paprikaSUG.png",14,"electronic devices","Drucker","Fam",0,0,"Paprika","Paprika",1,690
"5",5,2,60,5,"Exp","SemRelG",7,"transportation","boatSRG.png",7,"transportation","Auto","Fam",0,0,"Boot","Boot",1,1130
"5",5,3,68,24,"Exp","SemRelG",15,"plants","fernSRG.png",15,"plants","Moos","Fam",0,0,"Farn","Farn",1,693
"5",5,3,75,105,"Exp","Baseline",10,"clothes","jacketBAS.png",0,"0","Schnerp","Untrained",0,0,"Jacke","Jacke",1,701
"5",5,3,76,22,"Exp","SemRelG",13,"insects","bumblebeeSRG.png",13,"insects","Käfer","Fam",0,0,"Hummel","Hummel",1,740
"5",5,3,80,4,"Exp","SemRelG",3,"vegetables","pumpkinSRG.png",3,"vegetables","Gurke","Fam",0,0,"Kürbis","Kürbis",1,787
"5",5,3,86,110,"Exp","Baseline",2,"tools","wrenchBAS.png",0,"0","Lörme","Untrained",0,0,"Schraubenschlüssel","Schraubenschlüssel",1,1149
"5",5,3,88,16,"Exp","SemRelG",5,"fruit","kiwiSRG.png",5,"fruit","Banane","Fam",0,0,"Kiwi","Kiwi",1,842
"5",5,3,90,99,"Exp","Baseline",3,"vegetables","paprikaBAS.png",0,"0","Kremster","Untrained",0,0,"Paprika","Paprika",1,601
"5",5,4,99,8,"Exp","SemRelG",7,"transportation","planeSRG.png",7,"transportation","Zug","Fam",0,0,"Flugzeug","Flugzeug",1,583
"5",5,4,107,36,"Exp","SemUnRelG",10,"clothes","sockSUG.png",9,"drinks","Milch","Fam",0,0,"Socke","Socke",1,756
"5",5,4,111,100,"Exp","Baseline",3,"vegetables","pumpkinBAS.png",0,"0","Gipke","Untrained",0,0,"Kürbis","Kürbis",1,685
"5",5,4,112,6,"Exp","SemRelG",7,"transportation","helicopterSRG.png",7,"transportation","Bus","Fam",0,0,"Hubschrauber","Hubschrauber",1,698
"5",5,4,117,11,"Exp","SemRelG",10,"clothes","shirtSRG.png",10,"clothes","Rock","Fam",0,0,"Hemd","Hemd",1,667
"5",5,4,119,47,"Exp","SemUnRelG",14,"electronic devices","laptopSUG.png",3,"vegetables","Kartoffel","Fam",0,0,"Laptop","Computer",0,1250
"5",5,5,121,13,"Exp","SemRelG",1,"animals","goatSRG.png",1,"animals","Pferd","Fam",0,0,"Ziege","Ziege",1,926
"5",5,5,123,29,"Exp","SemUnRelG",7,"transportation","boatSUG.png",5,"fruit","Banane","Fam",0,0,"Boot","Boot",1,709
"5",5,5,124,112,"Exp","Baseline",5,"fruit","kiwiBAS.png",0,"0","Gaspe","Untrained",0,0,"Kiwi","Kiwi",1,580
"5",5,5,132,116,"Exp","Baseline",11,"tableware","forkBAS.png",0,"0","Krülp","Untrained",0,0,"Gabel","Gabel",1,735
"5",5,5,133,30,"Exp","SemUnRelG",7,"transportation","helicopterSUG.png",8,"human head","Ohr","Fam",0,0,"Hubschrauber","Hubschrauber",1,714
"5",5,5,136,111,"Exp","Baseline",4,"musical instruments","tromboneBAS.png",0,"0","Nipter","Untrained",0,0,"Posaune","Posaune",1,1406
"5",5,5,142,40,"Exp","SemUnRelG",5,"fruit","kiwiSUG.png",10,"clothes","Hose","Fam",0,0,"Kiwi","Kiwi",1,609
"5",5,5,148,18,"Exp","SemRelG",8,"human head","eyebrowSRG.png",8,"human head","Ohr","Fam",0,0,"Augenbraue","Augenbraue",1,782
"5",5,6,152,103,"Exp","Baseline",7,"transportation","bicycleBAS.png",0,"0","Belsk","Untrained",0,0,"Fahrrad","Fahrrad",1,646
"5",5,6,159,42,"Exp","SemUnRelG",8,"human head","eyebrowSUG.png",3,"vegetables","Tomate","Fam",0,0,"Augenbraue","Augenbraue",1,769
"5",5,6,160,113,"Exp","Baseline",6,"furniture","couchBAS.png",0,"0","Nipst","Untrained",0,0,"Sofa","Sofa",1,745
"5",5,6,167,35,"Exp","SemUnRelG",10,"clothes","shirtSUG.png",12,"shapes","Trapez","Fam",0,0,"Hemd","Hemd",1,654
"5",5,6,178,10,"Exp","SemRelG",10,"clothes","suitSRG.png",10,"clothes","Mantel","Fam",0,0,"Anzug","Anzug",1,769
"5",5,6,180,39,"Exp","SemUnRelG",4,"musical instruments","tromboneSUG.png",7,"transportation","Auto","Fam",0,0,"Posaune","Posaune",1,710
"5",5,7,189,37,"Exp","SemUnRelG",1,"animals","goatSUG.png",10,"clothes","Mantel","Fam",0,0,"Ziege","Ziege",1,677
"5",5,7,193,32,"Exp","SemUnRelG",7,"transportation","planeSUG.png",13,"insects","Käfer","Fam",0,0,"Flugzeug","Flugzeug",1,612
"5",5,7,199,109,"Exp","Baseline",1,"animals","goatBAS.png",0,"0","Zonte","Untrained",0,0,"Ziege","Ziege",1,785
"5",5,7,200,15,"Exp","SemRelG",4,"musical instruments","tromboneSRG.png",4,"musical instruments","Trommel","Fam",0,0,"Posaune","Posaune",1,693
"5",5,7,201,44,"Exp","SemUnRelG",11,"tableware","forkSUG.png",7,"transportation","Bus","Fam",0,0,"Gabel","Gabel",1,703
"5",5,7,203,118,"Exp","Baseline",13,"insects","bumblebeeBAS.png",0,"0","Schrieg","Untrained",0,0,"Hummel","Hummel",1,669
"5",5,7,204,1,"Exp","SemRelG",3,"vegetables","eggplantSRG.png",3,"vegetables","Zwiebel","Fam",0,0,"Aubergine","Aubergine",1,685
"5",5,7,208,12,"Exp","SemRelG",10,"clothes","sockSRG.png",10,"clothes","Kleid","Fam",0,0,"Socke","Socke",1,672
"5",5,7,210,114,"Exp","Baseline",8,"human head","eyebrowBAS.png",0,"0","Danpel","Untrained",0,0,"Augenbraue","Augenbraue",1,765
"5",5,8,214,101,"Exp","Baseline",7,"transportation","boatBAS.png",0,"0","Krebbel","Untrained",0,0,"Boot","Boot",1,703
"5",5,8,217,41,"Exp","SemUnRelG",6,"furniture","couchSUG.png",3,"vegetables","Gurke","Fam",0,0,"Sofa","Sofa",1,690
"5",5,8,220,14,"Exp","SemRelG",2,"tools","wrenchSRG.png",2,"tools","Axt","Fam",0,0,"Schraubenschlüssel","Schraubenschlüssel",1,1359
"5",5,8,225,25,"Exp","SemUnRelG",3,"vegetables","eggplantSUG.png",2,"tools","Axt","Fam",0,0,"Aubergine","Aubergine",1,732
"5",5,8,231,120,"Exp","Baseline",15,"plants","fernBAS.png",0,"0","Krutt","Untrained",0,0,"Farn","Farn",1,690
"5",5,8,234,33,"Exp","SemUnRelG",10,"clothes","jacketSUG.png",4,"musical instruments","Trommel","Fam",0,0,"Jacke","Jacke",1,662
"5",5,8,237,115,"Exp","Baseline",9,"drinks","juiceBAS.png",0,"0","Grölf","Untrained",0,0,"Saft","Saft",1,751
"5",5,9,246,26,"Exp","SemUnRelG",3,"vegetables","broccoliSUG.png",1,"animals","Pferd","Fam",0,0,"Brokkoli","Brokkoli",1,808
"5",5,9,251,102,"Exp","Baseline",7,"transportation","helicopterBAS.png",0,"0","Faum","Untrained",0,0,"Hubschrauber","Hubschrauber",1,853
"5",5,9,264,107,"Exp","Baseline",10,"clothes","shirtBAS.png",0,"0","Kritte","Untrained",0,0,"Hemd","Hemd",1,646
"5",5,9,265,21,"Exp","SemRelG",12,"shapes","cubeSRG.png",12,"shapes","Trapez","Fam",0,0,"Würfel","Würfel",1,989
"5",5,10,273,43,"Exp","SemUnRelG",9,"drinks","juiceSUG.png",7,"transportation","Zug","Fam",0,0,"Saft","Saft",1,709
"5",5,10,280,2,"Exp","SemRelG",3,"vegetables","broccoliSRG.png",3,"vegetables","Tomate","Fam",0,0,"Brokkoli","Brokkoli",1,793
"5",5,10,286,117,"Exp","Baseline",12,"shapes","cubeBAS.png",0,"0","Struge","Untrained",0,0,"Würfel","Würfel",1,861
"5",5,10,287,34,"Exp","SemUnRelG",10,"clothes","suitSUG.png",11,"tableware","Glas","Fam",0,0,"Anzug","Anzug",1,730
"5",5,10,288,17,"Exp","SemRelG",6,"furniture","couchSRG.png",6,"furniture","Schrank","Fam",0,0,"Sofa","Sofa",1,732
"5",5,10,294,28,"Exp","SemUnRelG",3,"vegetables","pumpkinSUG.png",6,"furniture","Schrank","Fam",0,0,"Kürbis","Kürbis",1,683
"5",5,10,300,19,"Exp","SemRelG",9,"drinks","juiceSRG.png",9,"drinks","Milch","Fam",0,0,"Saft","Saft",1,723
"6",3,1,1,10,"Exp","SemRelG",15,"plants","ivySRG.png",15,"plants","Kaktus","Fam",0,0,"Efeu","Efeu",1,821
"6",3,1,3,115,"Exp","Baseline",7,"transportation","bicycleBAS.png",0,"0","Belsk","Untrained",0,0,"Fahrrad","Fahrrad",1,620
"6",3,1,5,26,"Exp","SemUnRelG",12,"shapes","rectangleSUG.png",1,"animals","Hund","Fam",0,0,"Rechteck","Rechteck",1,879
"6",3,1,7,118,"Exp","Baseline",10,"clothes","shirtBAS.png",0,"0","Kritte","Untrained",0,0,"Hemd","Hemd",1,769
"6",3,1,11,12,"Exp","SemRelG",15,"plants","fernSRG.png",15,"plants","Moos","Fam",0,0,"Farn","Farn",1,1359
"6",3,1,16,3,"Exp","SemRelG",12,"shapes","triangleSRG.png",12,"shapes","Kreis","Fam",0,0,"Dreieck","Dreieck",1,711
"6",3,1,21,108,"Exp","Baseline",15,"plants","fernBAS.png",0,"0","Krutt","Untrained",0,0,"Farn","Farn",1,1008
"6",3,1,24,20,"Exp","SemRelG",8,"human head","moustacheSRG.png",8,"human head","Mund","Fam",0,0,"Schnurrbart","Schnurrbart",1,690
"6",3,1,27,114,"Exp","Baseline",6,"furniture","stoolBAS.png",0,"0","Anster","Untrained",0,0,"Hocker","Hocker",1,738
"6",3,1,30,27,"Exp","SemUnRelG",12,"shapes","triangleSUG.png",13,"insects","Libelle","Fam",0,0,"Dreieck","Dreieck",1,660
"6",3,2,35,35,"Exp","SemUnRelG",15,"plants","bambooSUG.png",6,"furniture","Bett","Fam",0,0,"Bambus","Bambus",1,929
"6",3,2,41,24,"Exp","SemRelG",13,"insects","antSRG.png",13,"insects","Libelle","Fam",0,0,"Ameise","Ameise",1,727
"6",3,2,45,9,"Exp","SemRelG",15,"plants","grassSRG.png",15,"plants","Baum","Fam",0,0,"Grass","Gras",1,748
"6",3,2,49,30,"Exp","SemUnRelG",14,"electronic devices","radioSUG.png",8,"human head","Mund","Fam",0,0,"Radio","Radio",1,677
"6",3,2,53,119,"Exp","Baseline",11,"tableware","spoonBAS.png",0,"0","Dulp","Untrained",0,0,"Löffel","Löffel",1,764
"6",3,2,55,34,"Exp","SemUnRelG",15,"plants","ivySUG.png",12,"shapes","Stern","Fam",0,0,"Efeu","Efeu",1,701
"6",3,2,59,37,"Exp","SemUnRelG",1,"animals","giraffeSUG.png",11,"tableware","Tasse","Fam",0,0,"Giraffe","Giraffe",1,643
"6",3,3,68,42,"Exp","SemUnRelG",6,"furniture","stoolSUG.png",15,"plants","Blume","Fam",0,0,"Hocker","Hocker",1,565
"6",3,3,72,38,"Exp","SemUnRelG",2,"tools","drillSUG.png",12,"shapes","Diamant","Fam",0,0,"Bohrmaschine","Bohrer",1,690
"6",3,3,78,18,"Exp","SemRelG",6,"furniture","stoolSRG.png",6,"furniture","Bett","Fam",0,0,"Hocker","Hocker",1,659
"6",3,3,79,120,"Exp","Baseline",13,"insects","antBAS.png",0,"0","Fatsch","Untrained",0,0,"Ameise","Ameise",1,651
"6",3,3,83,15,"Exp","SemRelG",3,"vegetables","paprikaSRG.png",3,"vegetables","Kartoffel","Fam",0,0,"Paprika","Paprika",1,918
"6",3,4,92,32,"Exp","SemUnRelG",14,"electronic devices","laptopSUG.png",3,"vegetables","Kartoffel","Fam",0,0,"Laptop","Laptop",1,918
"6",3,4,101,19,"Exp","SemRelG",7,"transportation","bicycleSRG.png",7,"transportation","Schiff","Fam",0,0,"Fahrrad","Fahrrad",1,617
"6",3,4,105,7,"Exp","SemRelG",14,"electronic devices","telephoneSRG.png",14,"electronic devices","Kamera","Fam",0,0,"Telefon","Telefon",1,667
"6",3,4,106,110,"Exp","Baseline",2,"tools","drillBAS.png",0,"0","Tuspe","Untrained",0,0,"Bohrmaschine","Bohrer",1,1000
"6",3,4,110,47,"Exp","SemUnRelG",11,"tableware","spoonSUG.png",15,"plants","Kaktus","Fam",0,0,"Löffel","Löffel",1,572
"6",3,5,121,113,"Exp","Baseline",5,"fruit","pineappleBAS.png",0,"0","Gelsch","Untrained",0,0,"Ananas","Ananas",1,722
"6",3,5,123,40,"Exp","SemUnRelG",4,"musical instruments","fluteSUG.png",15,"plants","Baum","Fam",0,0,"Flöte","Flöte",1,593
"6",3,5,126,1,"Exp","SemRelG",12,"shapes","ovalSRG.png",12,"shapes","Diamant","Fam",0,0,"Oval","Oval",1,627
"6",3,5,130,109,"Exp","Baseline",1,"animals","giraffeBAS.png",0,"0","Flimsch","Untrained",0,0,"Giraffe","Giraffe",1,714
"6",3,5,135,44,"Exp","SemUnRelG",8,"human head","moustacheSUG.png",14,"electronic devices","Computer","Fam",0,0,"Schnurrbart","Schnurrbart",1,1250
"6",3,5,137,5,"Exp","SemRelG",14,"electronic devices","tvSRG.png",14,"electronic devices","Handy","Fam",0,0,"Fernseher","Fernseher",1,740
"6",3,5,139,43,"Exp","SemUnRelG",7,"transportation","bicycleSUG.png",15,"plants","Moos","Fam",0,0,"Fahrrad","Fahrrad",1,578
"6",3,5,147,25,"Exp","SemUnRelG",12,"shapes","ovalSUG.png",4,"musical instruments","Geige","Fam",0,0,"Oval","Oval",1,693
"6",3,5,149,11,"Exp","SemRelG",15,"plants","bambooSRG.png",15,"plants","Blume","Fam",0,0,"Bambus","Bambus",1,840
"6",3,6,156,102,"Exp","Baseline",14,"electronic devices","radioBAS.png",0,"0","Plümme","Untrained",0,0,"Radio","Radio",1,617
"6",3,6,166,48,"Exp","SemUnRelG",13,"insects","antSUG.png",12,"shapes","Kreis","Fam",0,0,"Ameise","Ameise",1,559
"6",3,6,167,16,"Exp","SemRelG",4,"musical instruments","fluteSRG.png",4,"musical instruments","Geige","Fam",0,0,"Flöte","Flöte",1,570
"6",3,6,168,104,"Exp","Baseline",14,"electronic devices","laptopBAS.png",0,"0","Nelft","Untrained",0,0,"Laptop","Laptop",1,777
"6",3,6,174,33,"Exp","SemUnRelG",15,"plants","grassSUG.png",2,"tools","Säge","Fam",0,0,"Grass","Gras",1,690
"6",3,6,176,98,"Exp","Baseline",12,"shapes","rectangleBAS.png",0,"0","Dichse","Untrained",0,0,"Rechteck","Rechteck",1,895
"6",3,6,180,103,"Exp","Baseline",14,"electronic devices","telephoneBAS.png",0,"0","Pfenk","Untrained",0,0,"Telefon","Telefon",1,601
"6",3,7,184,14,"Exp","SemRelG",2,"tools","drillSRG.png",2,"tools","Säge","Fam",0,0,"Bohrmaschine","Bohrer",0,766
"6",3,7,186,45,"Exp","SemUnRelG",9,"drinks","cocktailSUG.png",14,"electronic devices","Kamera","Fam",0,0,"Cocktail","Cocktail",1,722
"6",3,7,189,112,"Exp","Baseline",4,"musical instruments","fluteBAS.png",0,"0","Frattel","Untrained",0,0,"Flöte","Flöte",1,520
"6",3,7,193,99,"Exp","Baseline",12,"shapes","triangleBAS.png",0,"0","Nörre","Untrained",0,0,"Dreieck","Dreieck",1,683
"6",3,7,198,22,"Exp","SemRelG",10,"clothes","shirtSRG.png",10,"clothes","Rock","Fam",0,0,"Hemd","Hemd",1,633
"6",3,7,204,2,"Exp","SemRelG",12,"shapes","rectangleSRG.png",12,"shapes","Stern","Fam",0,0,"Rechteck","Rechteck",1,753
"6",3,7,206,105,"Exp","Baseline",15,"plants","grassBAS.png",0,"0","Kimchel","Untrained",0,0,"Grass","Gras",1,599
"6",3,7,209,17,"Exp","SemRelG",5,"fruit","pineappleSRG.png",5,"fruit","Birne","Fam",0,0,"Ananas","Ananas",1,617
"6",3,8,215,39,"Exp","SemUnRelG",3,"vegetables","paprikaSUG.png",14,"electronic devices","Drucker","Fam",0,0,"Paprika","Paprika",1,690
"6",3,8,223,117,"Exp","Baseline",9,"drinks","cocktailBAS.png",0,"0","Lirst","Untrained",0,0,"Cocktail","Cocktail",1,803
"6",3,8,225,28,"Exp","SemUnRelG",12,"shapes","cubeSUG.png",7,"transportation","Schiff","Fam",0,0,"Würfel","Würfel",1,981
"6",3,8,234,6,"Exp","SemRelG",14,"electronic devices","radioSRG.png",14,"electronic devices","Computer","Fam",0,0,"Radio","Radio",1,609
"6",3,8,236,97,"Exp","Baseline",12,"shapes","ovalBAS.png",0,"0","Trinter","Untrained",0,0,"Oval","Oval",1,648
"6",3,9,247,29,"Exp","SemUnRelG",14,"electronic devices","tvSUG.png",5,"fruit","Birne","Fam",0,0,"Fernseher","Fernseher",1,672
"6",3,9,248,116,"Exp","Baseline",8,"human head","moustacheBAS.png",0,"0","Laht","Untrained",0,0,"Schnurrbart","Schnurrbart",1,840
"6",3,9,254,107,"Exp","Baseline",15,"plants","bambooBAS.png",0,"0","Borp","Untrained",0,0,"Bambus","Bambus",1,837
"6",3,9,255,41,"Exp","SemUnRelG",5,"fruit","pineappleSUG.png",14,"electronic devices","Handy","Fam",0,0,"Ananas","Ananas",1,625
"6",3,9,259,111,"Exp","Baseline",3,"vegetables","paprikaBAS.png",0,"0","Kremster","Untrained",0,0,"Paprika","Paprika",1,675
"6",3,9,262,13,"Exp","SemRelG",1,"animals","giraffeSRG.png",1,"animals","Hund","Fam",0,0,"Giraffe","Giraffe",1,604
"6",3,9,265,46,"Exp","SemUnRelG",10,"clothes","shirtSUG.png",12,"shapes","Trapez","Fam",0,0,"Hemd","Hemd",1,575
"6",3,9,268,8,"Exp","SemRelG",14,"electronic devices","laptopSRG.png",14,"electronic devices","Drucker","Fam",0,0,"Laptop","Taptop",0,735
"6",3,9,269,100,"Exp","Baseline",12,"shapes","cubeBAS.png",0,"0","Struge","Untrained",0,0,"Würfel","Würfel",1,824
"6",3,10,279,31,"Exp","SemUnRelG",14,"electronic devices","telephoneSUG.png",9,"drinks","Wasser","Fam",0,0,"Telefon","Telefon",1,732
"6",3,10,280,4,"Exp","SemRelG",12,"shapes","cubeSRG.png",12,"shapes","Trapez","Fam",0,0,"Würfel","Würfel",1,724
"6",3,10,287,106,"Exp","Baseline",15,"plants","ivyBAS.png",0,"0","Funne","Untrained",0,0,"Efeu","Efeu",1,654
"6",3,10,288,23,"Exp","SemRelG",11,"tableware","spoonSRG.png",11,"tableware","Tasse","Fam",0,0,"Löffel","Löffel",1,675
"6",3,10,291,101,"Exp","Baseline",14,"electronic devices","tvBAS.png",0,"0","Gromst","Untrained",0,0,"Fernseher","Fernseher",1,777
"6",3,10,298,36,"Exp","SemUnRelG",15,"plants","fernSUG.png",10,"clothes","Rock","Fam",0,0,"Farn","Farn",1,544
"6",3,10,300,21,"Exp","SemRelG",9,"drinks","cocktailSRG.png",9,"drinks","Wasser","Fam",0,0,"Cocktail","Cocktail",1,668
"8",4,1,6,13,"Exp","SemRelG",1,"animals","wolfSRG.png",1,"animals","Kuh","Fam",0,0,"Wolf","Wolf",1,806
"8",4,1,8,43,"Exp","SemUnRelG",8,"human head","chinSUG.png",9,"drinks","Kaffee","Fam",0,0,"Kinn","Kinn",1,806
"8",4,1,12,116,"Exp","Baseline",10,"clothes","sockBAS.png",0,"0","Schnist","Untrained",0,0,"Socke","Socke",1,698
"8",4,1,13,27,"Exp","SemUnRelG",6,"furniture","stoolSUG.png",15,"plants","Blume","Fam",0,0,"Hocker","Hocker",1,774
"8",4,1,16,113,"Exp","Baseline",5,"fruit","peachBAS.png",0,"0","Lüfze","Untrained",0,0,"Pfirsich","Pfirsich",1,1212
"8",4,1,17,37,"Exp","SemUnRelG",1,"animals","wolfSUG.png",6,"furniture","Stuhl","Fam",0,0,"Wolf","Wolf",1,745
"8",4,1,20,118,"Exp","Baseline",12,"shapes","triangleBAS.png",0,"0","Nörre","Untrained",0,0,"Dreieck","Dreieck",1,1272
"8",4,1,21,39,"Exp","SemUnRelG",3,"vegetables","pumpkinSUG.png",6,"furniture","Schrank","Fam",0,0,"Kürbis","Kürbis",1,1021
"8",4,1,25,102,"Exp","Baseline",9,"drinks","wineBAS.png",0,"0","Lirst","Untrained",0,0,"Wein","Wein",1,806
"8",4,1,30,20,"Exp","SemRelG",10,"clothes","sockSRG.png",10,"clothes","Kleid","Fam",0,0,"Socke","Socke",1,652
"8",4,2,34,119,"Exp","Baseline",14,"electronic devices","telephoneBAS.png",0,"0","Pfenk","Untrained",0,0,"Telefon","Telefon",1,858
"8",4,2,35,31,"Exp","SemUnRelG",9,"drinks","cocktailSUG.png",14,"electronic devices","Kamera","Fam",0,0,"Cocktail","Cocktail",1,738
"8",4,2,40,28,"Exp","SemUnRelG",6,"furniture","couchSUG.png",3,"vegetables","Gurke","Fam",0,0,"Sofa","Sofa",1,1133
"8",4,2,42,18,"Exp","SemRelG",7,"transportation","planeSRG.png",7,"transportation","Zug","Fam",0,0,"Flugzeug","Flugzeug",1,662
"8",4,2,50,26,"Exp","SemUnRelG",6,"furniture","shelvesSUG.png",1,"animals","Kuh","Fam",0,0,"Regal","Regal",1,1160
"8",4,2,53,109,"Exp","Baseline",1,"animals","wolfBAS.png",0,"0","Wark","Untrained",0,0,"Wolf","Wolf",1,1010
"8",4,3,74,14,"Exp","SemRelG",2,"tools","hexkeySRG.png",2,"tools","Zange","Fam",0,0,"Inbusschlüssel","Inbusschlüssel",1,1194
"8",4,3,82,17,"Exp","SemRelG",5,"fruit","peachSRG.png",5,"fruit","Orange","Fam",0,0,"Pfirsich","Pfirsich",1,1057
"8",4,3,85,40,"Exp","SemUnRelG",4,"musical instruments","saxophoneSUG.png",13,"insects","Schmetterling","Fam",0,0,"Saxophon","Trompete",1,1773
"8",4,4,91,99,"Exp","Baseline",6,"furniture","stoolBAS.png",0,"0","Anster","Untrained",0,0,"Hocker","Hocker",1,685
"8",4,4,92,41,"Exp","SemUnRelG",5,"fruit","peachSUG.png",6,"furniture","Tisch","Fam",0,0,"Pfirsich","Pfirsich",1,625
"8",4,4,96,34,"Exp","SemUnRelG",13,"insects","spiderSUG.png",11,"tableware","Schüssel","Fam",0,0,"Spinne","Spinne",1,942
"8",4,4,100,38,"Exp","SemUnRelG",2,"tools","hexkeySUG.png",9,"drinks","Tee","Fam",0,0,"Inbusschlüssel","Inbusschlüssel",1,814
"8",4,4,106,111,"Exp","Baseline",3,"vegetables","pumpkinBAS.png",0,"0","Gipke","Untrained",0,0,"Kürbis","Kürbis",1,1018
"8",4,4,119,107,"Exp","Baseline",13,"insects","antBAS.png",0,"0","Fatsch","Untrained",0,0,"Ameise","Ameise",1,730
"8",4,5,127,120,"Exp","Baseline",15,"plants","bambooBAS.png",0,"0","Borp","Untrained",0,0,"Bambus","Bambus",1,913
"8",4,5,128,25,"Exp","SemUnRelG",6,"furniture","dresserSUG.png",5,"fruit","Orange","Fam",0,0,"Kommode","Kommode",1,1312
"8",4,5,131,21,"Exp","SemRelG",11,"tableware","jugSRG.png",11,"tableware","Schüssel","Fam",0,0,"Krug","Krug",1,769
"8",4,5,137,114,"Exp","Baseline",7,"transportation","planeBAS.png",0,"0","Nipst","Untrained",0,0,"Flugzeug","Flugzeug",1,709
"8",4,5,138,1,"Exp","SemRelG",6,"furniture","dresserSRG.png",6,"furniture","Tisch","Fam",0,0,"Kommode","Kommode",1,882
"8",4,5,140,33,"Exp","SemUnRelG",13,"insects","locustSUG.png",4,"musical instruments","Klavier","Fam",0,0,"Heuschrecke","Heuschrecke",1,622
"8",4,5,142,6,"Exp","SemRelG",9,"drinks","wineSRG.png",9,"drinks","Kaffee","Fam",0,0,"Wein","Wein",1,756
"8",4,5,148,45,"Exp","SemUnRelG",11,"tableware","jugSUG.png",13,"insects","Fliege","Fam",0,0,"Krug","Krug",1,730
"8",4,5,150,108,"Exp","Baseline",13,"insects","bumblebeeBAS.png",0,"0","Schrieg","Untrained",0,0,"Hummel","Hummel",1,778
"8",4,6,153,3,"Exp","SemRelG",6,"furniture","stoolSRG.png",6,"furniture","Bett","Fam",0,0,"Hocker","Hocker",1,690
"8",4,6,157,46,"Exp","SemUnRelG",12,"shapes","triangleSUG.png",13,"insects","Libelle","Fam",0,0,"Dreieck","Dreieck",1,774
"8",4,6,161,44,"Exp","SemUnRelG",10,"clothes","sockSUG.png",9,"drinks","Milch","Fam",0,0,"Socke","Socke",1,701
"8",4,6,166,100,"Exp","Baseline",6,"furniture","couchBAS.png",0,"0","Nipst","Untrained",0,0,"Sofa","Sofa",1,808
"8",4,6,172,22,"Exp","SemRelG",12,"shapes","triangleSRG.png",12,"shapes","Kreis","Fam",0,0,"Dreieck","Dreieck",1,966
"8",4,6,177,48,"Exp","SemUnRelG",15,"plants","bambooSUG.png",6,"furniture","Bett","Fam",0,0,"Bambus","Bambus",1,918
"8",4,7,185,30,"Exp","SemUnRelG",9,"drinks","wineSUG.png",8,"human head","Nase","Fam",0,0,"Wein","Wein",1,766
"8",4,7,196,7,"Exp","SemRelG",9,"drinks","cocktailSRG.png",9,"drinks","Wasser","Fam",0,0,"Cocktail","Cocktail",1,777
"8",4,7,198,105,"Exp","Baseline",13,"insects","locustBAS.png",0,"0","Koss","Untrained",0,0,"Heuschrecke","Heuschrecke",1,667
"8",4,7,201,47,"Exp","SemUnRelG",14,"electronic devices","telephoneSUG.png",9,"drinks","Wasser","Fam",0,0,"Telefon","Telefon",1,756
"8",4,7,207,104,"Exp","Baseline",9,"drinks","juiceBAS.png",0,"0","Grölf","Untrained",0,0,"Saft","Saft",1,790
"8",4,7,208,12,"Exp","SemRelG",13,"insects","bumblebeeSRG.png",13,"insects","Käfer","Fam",0,0,"Hummel","Hummel",1,782
"8",4,8,220,32,"Exp","SemUnRelG",9,"drinks","juiceSUG.png",7,"transportation","Zug","Fam",0,0,"Saft","Saft",1,677
"8",4,8,222,23,"Exp","SemRelG",14,"electronic devices","telephoneSRG.png",14,"electronic devices","Kamera","Fam",0,0,"Telefon","Telefon",1,727
"8",4,8,226,11,"Exp","SemRelG",13,"insects","antSRG.png",13,"insects","Libelle","Fam",0,0,"Ameise","Ameise",1,821
"8",4,8,230,5,"Exp","SemRelG",9,"drinks","beerSRG.png",9,"drinks","Tee","Fam",0,0,"Bier","Bier",1,950
"8",4,8,234,19,"Exp","SemRelG",8,"human head","chinSRG.png",8,"human head","Nase","Fam",0,0,"Kinn","Kinn",1,738
"8",4,8,235,110,"Exp","Baseline",2,"tools","hexkeyBAS.png",0,"0","Braktel","Untrained",0,0,"Inbusschlüssel","Inbusschlüssel",1,795
"8",4,8,239,106,"Exp","Baseline",13,"insects","spiderBAS.png",0,"0","Riel","Untrained",0,0,"Spinne","Spinne",1,769
"8",4,9,251,101,"Exp","Baseline",9,"drinks","beerBAS.png",0,"0","Tirk","Untrained",0,0,"Bier","Bier",1,766
"8",4,9,257,36,"Exp","SemUnRelG",13,"insects","bumblebeeSUG.png",10,"clothes","Kleid","Fam",0,0,"Hummel","Hummel",1,641
"8",4,9,258,16,"Exp","SemRelG",4,"musical instruments","saxophoneSRG.png",4,"musical instruments","Klavier","Fam",0,0,"Saxophon","Pos...",0,2197
"8",4,9,259,97,"Exp","Baseline",6,"furniture","dresserBAS.png",0,"0","Ziftel","Untrained",0,0,"Kommode","Kommode",1,929
"8",4,9,263,117,"Exp","Baseline",11,"tableware","jugBAS.png",0,"0","Limster","Untrained",0,0,"Krug","Krug",1,748
"8",4,9,266,15,"Exp","SemRelG",3,"vegetables","pumpkinSRG.png",3,"vegetables","Gurke","Fam",0,0,"Kürbis","Kürbis",1,816
"8",4,9,267,103,"Exp","Baseline",9,"drinks","cocktailBAS.png",0,"0","Schomkel","Untrained",0,0,"Cocktail","Cocktail",1,743
"8",4,9,270,24,"Exp","SemRelG",15,"plants","bambooSRG.png",15,"plants","Blume","Fam",0,0,"Bambus","Bambus",1,668
"8",4,10,271,35,"Exp","SemUnRelG",13,"insects","antSUG.png",12,"shapes","Kreis","Fam",0,0,"Ameise","Ameise",1,698
"8",4,10,273,98,"Exp","Baseline",6,"furniture","shelvesBAS.png",0,"0","Rilmung","Untrained",0,0,"Regal","Regal",1,1165
"8",4,10,277,8,"Exp","SemRelG",9,"drinks","juiceSRG.png",9,"drinks","Milch","Fam",0,0,"Saft","Saft",1,772
"8",4,10,278,115,"Exp","Baseline",8,"human head","chinBAS.png",0,"0","Jaste","Untrained",0,0,"Kinn","Kinn",1,703
"8",4,10,279,42,"Exp","SemUnRelG",7,"transportation","planeSUG.png",13,"insects","Käfer","Fam",0,0,"Flugzeug","Flugzeug",1,659
"8",4,10,281,10,"Exp","SemRelG",13,"insects","spiderSRG.png",13,"insects","Fliege","Fam",0,0,"Spinne","Spinne",1,772
"8",4,10,285,2,"Exp","SemRelG",6,"furniture","shelvesSRG.png",6,"furniture","Stuhl","Fam",0,0,"Regal","Regal",1,913
"8",4,10,287,29,"Exp","SemUnRelG",9,"drinks","beerSUG.png",2,"tools","Zange","Fam",0,0,"Bier","Bier",1,745
"8",4,10,290,112,"Exp","Baseline",4,"musical instruments","saxophoneBAS.png",0,"0","Batte","Untrained",0,0,"Saxophon","Rob...",0,2232
"8",4,10,291,9,"Exp","SemRelG",13,"insects","locustSRG.png",13,"insects","Schmetterling","Fam",0,0,"Heuschrecke","Heuschrecke",1,709
"8",4,10,295,4,"Exp","SemRelG",6,"furniture","couchSRG.png",6,"furniture","Schrank","Fam",0,0,"Sofa","Sofa",1,709
"9",2,1,1,105,"Exp","Baseline",11,"tableware","teapotBAS.png",0,"0","Binsch","Untrained",0,0,"Teekanne","Kanne",0,1540
"9",2,1,3,32,"Exp","SemUnRelG",8,"human head","eyebrowSUG.png",3,"vegetables","Tomate","Fam",0,0,"Augenbraue","Augenbraue",1,1262
"9",2,1,8,44,"Exp","SemUnRelG",10,"clothes","suitSUG.png",11,"tableware","Glas","Fam",0,0,"Anzug","Anzug",1,1008
"9",2,1,18,17,"Exp","SemRelG",6,"furniture","shelvesSRG.png",6,"furniture","Stuhl","Fam",0,0,"Regal","Regal",1,1102
"9",2,1,22,19,"Exp","SemRelG",9,"drinks","wineSRG.png",9,"drinks","Kaffee","Fam",0,0,"Wein","Wein",1,879
"9",2,1,23,117,"Exp","Baseline",12,"shapes","rectangleBAS.png",0,"0","Dichse","Untrained",0,0,"Rechteck","Rechteck",1,958
"9",2,1,24,36,"Exp","SemUnRelG",11,"tableware","forkSUG.png",7,"transportation","Bus","Fam",0,0,"Gabel","Gabel",1,937
"9",2,1,27,98,"Exp","Baseline",1,"animals","giraffeBAS.png",0,"0","Flimsch","Untrained",0,0,"Giraffe","Giraffe",1,979
"9",2,1,30,18,"Exp","SemRelG",7,"transportation","helicopterSRG.png",7,"transportation","Bus","Fam",0,0,"Hubschrauber","Hubschrauber",1,1407
"9",2,2,32,43,"Exp","SemUnRelG",9,"drinks","wineSUG.png",8,"human head","Nase","Fam",0,0,"Wein","Wein",1,842
"9",2,2,34,9,"Exp","SemRelG",11,"tableware","teapotSRG.png",11,"tableware","Teller","Fam",0,0,"Teekanne","Kanne",0,1634
"9",2,2,37,48,"Exp","SemUnRelG",15,"plants","ivySUG.png",12,"shapes","Stern","Fam",0,0,"Efeu","Efeu",1,1275
"9",2,2,43,116,"Exp","Baseline",10,"clothes","suitBAS.png",0,"0","Bolst","Untrained",0,0,"Anzug","Anzug",1,895
"9",2,2,45,1,"Exp","SemRelG",1,"animals","elephantSRG.png",1,"animals","Katze","Fam",0,0,"Elefant","Elefant",1,918
"9",2,2,47,112,"Exp","Baseline",5,"fruit","watermelonBAS.png",0,"0","Knosch","Untrained",0,0,"Wassermelone","Wassermelone",1,966
"9",2,2,56,106,"Exp","Baseline",11,"tableware","spoonBAS.png",0,"0","Dulp","Untrained",0,0,"Löffel","Löffel",1,1799
"9",2,2,59,24,"Exp","SemRelG",15,"plants","ivySRG.png",15,"plants","Kaktus","Fam",0,0,"Efeu","Efeu",1,1288
"9",2,3,71,114,"Exp","Baseline",7,"transportation","helicopterBAS.png",0,"0","Mefst","Untrained",0,0,"Hubschrauber","Hubschrauber",1,855
"9",2,3,79,25,"Exp","SemUnRelG",1,"animals","elephantSUG.png",2,"tools","Hammer","Fam",0,0,"Elefant","Elefant",1,845
"9",2,3,88,6,"Exp","SemRelG",8,"human head","moustacheSRG.png",8,"human head","Mund","Fam",0,0,"Schnurrbart","Schnurrbart",1,1097
"9",2,4,102,115,"Exp","Baseline",9,"drinks","wineBAS.png",0,"0","Lirst","Untrained",0,0,"Wein","Wein",1,1070
"9",2,4,109,23,"Exp","SemRelG",14,"electronic devices","radioSRG.png",14,"electronic devices","Computer","Fam",0,0,"Radio","Radio",1,918
"9",2,4,114,97,"Exp","Baseline",1,"animals","elephantBAS.png",0,"0","Korm","Untrained",0,0,"Elefant","Elefant",1,1519
"9",2,4,115,45,"Exp","SemUnRelG",12,"shapes","rectangleSUG.png",1,"animals","Hund","Fam",0,0,"Rechteck","Rechteck",1,1115
"9",2,4,118,13,"Exp","SemRelG",2,"tools","screwdriverSRG.png",2,"tools","Hammer","Fam",0,0,"Schraubenzieher","Schraubenzieher",1,1495
"9",2,5,121,39,"Exp","SemUnRelG",4,"musical instruments","harpSUG.png",1,"animals","Katze","Fam",0,0,"Harfe","Harfe",1,1068
"9",2,5,126,3,"Exp","SemRelG",1,"animals","wolfSRG.png",1,"animals","Kuh","Fam",0,0,"Wolf","Wolf",1,876
"9",2,5,130,11,"Exp","SemRelG",11,"tableware","jugSRG.png",11,"tableware","Schüssel","Fam",0,0,"Krug","Krug",1,1167
"9",2,5,131,109,"Exp","Baseline",2,"tools","screwdriverBAS.png",0,"0","Rosk","Untrained",0,0,"Schraubenzieher","Schraubenzieher",1,1023
"9",2,5,134,30,"Exp","SemUnRelG",8,"human head","moustacheSUG.png",14,"electronic devices","Computer","Fam",0,0,"Schnurrbart","Schnurrbart",1,772
"9",2,5,136,100,"Exp","Baseline",1,"animals","goatBAS.png",0,"0","Zonte","Untrained",0,0,"Ziege","Ziege",1,1021
"9",2,5,146,37,"Exp","SemUnRelG",2,"tools","screwdriverSUG.png",8,"human head","Auge","Fam",0,0,"Schraubenzieher","Schraubenzieher",1,1028
"9",2,5,147,22,"Exp","SemRelG",13,"insects","spiderSRG.png",13,"insects","Fliege","Fam",0,0,"Spinne","Spinne",1,905
"9",2,6,151,7,"Exp","SemRelG",8,"human head","chinSRG.png",8,"human head","Nase","Fam",0,0,"Kinn","Kinn",1,1010
"9",2,6,153,113,"Exp","Baseline",6,"furniture","shelvesBAS.png",0,"0","Rilmung","Untrained",0,0,"Regal","Regal",1,1477
"9",2,6,154,35,"Exp","SemUnRelG",11,"tableware","jugSUG.png",13,"insects","Fliege","Fam",0,0,"Krug","Krug",1,1073
"9",2,6,161,104,"Exp","Baseline",8,"human head","eyebrowBAS.png",0,"0","Danpel","Untrained",0,0,"Augenbraue","Augenbraue",1,819
"9",2,6,167,20,"Exp","SemRelG",10,"clothes","suitSRG.png",10,"clothes","Mantel","Fam",0,0,"Anzug","Anzug",1,1424
"9",2,6,168,33,"Exp","SemUnRelG",11,"tableware","teapotSUG.png",4,"musical instruments","Gitarre","Fam",0,0,"Teekanne","Kanne",0,1333
"9",2,6,173,46,"Exp","SemUnRelG",13,"insects","spiderSUG.png",11,"tableware","Schüssel","Fam",0,0,"Spinne","Spinne",1,960
"9",2,7,182,40,"Exp","SemUnRelG",5,"fruit","watermelonSUG.png",11,"tableware","Teller","Fam",0,0,"Wassermelone","Wassermelone",1,1060
"9",2,7,183,111,"Exp","Baseline",4,"musical instruments","harpBAS.png",0,"0","Prönke","Untrained",0,0,"Harfe","Harfe",1,866
"9",2,7,186,27,"Exp","SemUnRelG",1,"animals","wolfSUG.png",6,"furniture","Stuhl","Fam",0,0,"Wolf","Wolf",1,832
"9",2,7,192,42,"Exp","SemUnRelG",7,"transportation","helicopterSUG.png",8,"human head","Ohr","Fam",0,0,"Hubschrauber","Hubschrauber",1,1500
"9",2,7,194,8,"Exp","SemRelG",8,"human head","eyebrowSRG.png",8,"human head","Ohr","Fam",0,0,"Augenbraue","Augenbraue",1,916
"9",2,7,195,119,"Exp","Baseline",14,"electronic devices","radioBAS.png",0,"0","Plümme","Untrained",0,0,"Radio","Radio",1,916
"9",2,7,198,4,"Exp","SemRelG",1,"animals","goatSRG.png",1,"animals","Pferd","Fam",0,0,"Ziege","Ziege",1,963
"9",2,7,199,108,"Exp","Baseline",11,"tableware","forkBAS.png",0,"0","Krülp","Untrained",0,0,"Gabel","Gabel",1,1141
"9",2,7,204,29,"Exp","SemUnRelG",8,"human head","beardSUG.png",5,"fruit","Apfel","Fam",0,0,"Bart","Bart",1,1956
"9",2,7,208,99,"Exp","Baseline",1,"animals","wolfBAS.png",0,"0","Wark","Untrained",0,0,"Wolf","Wolf",1,926
"9",2,7,209,34,"Exp","SemUnRelG",11,"tableware","spoonSUG.png",15,"plants","Kaktus","Fam",0,0,"Löffel","Löffel",1,866
"9",2,8,215,16,"Exp","SemRelG",5,"fruit","watermelonSRG.png",5,"fruit","Apfel","Fam",0,0,"Wassermelone","Wassermelone",1,1078
"9",2,8,216,101,"Exp","Baseline",8,"human head","beardBAS.png",0,"0","Flerst","Untrained",0,0,"Bart","Bart",1,921
"9",2,8,226,103,"Exp","Baseline",8,"human head","chinBAS.png",0,"0","Jaste","Untrained",0,0,"Kinn","Kinn",1,1610
"9",2,8,232,14,"Exp","SemRelG",3,"vegetables","broccoliSRG.png",3,"vegetables","Tomate","Fam",0,0,"Brokkoli","Brokkoli",1,992
"9",2,8,236,5,"Exp","SemRelG",8,"human head","beardSRG.png",8,"human head","Auge","Fam",0,0,"Bart","Bart",1,1028
"9",2,9,241,12,"Exp","SemRelG",11,"tableware","forkSRG.png",11,"tableware","Glas","Fam",0,0,"Gabel","Gabel",1,1201
"9",2,9,245,21,"Exp","SemRelG",12,"shapes","rectangleSRG.png",12,"shapes","Stern","Fam",0,0,"Rechteck","Rechteck",1,1250
"9",2,9,248,31,"Exp","SemUnRelG",8,"human head","chinSUG.png",9,"drinks","Kaffee","Fam",0,0,"Kinn","Kinn",1,932
"9",2,9,249,2,"Exp","SemRelG",1,"animals","giraffeSRG.png",1,"animals","Hund","Fam",0,0,"Giraffe","Giraffe",1,816
"9",2,9,250,110,"Exp","Baseline",3,"vegetables","broccoliBAS.png",0,"0","Trange","Untrained",0,0,"Brokkoli","Brokkoli",1,837
"9",2,9,254,15,"Exp","SemRelG",4,"musical instruments","harpSRG.png",4,"musical instruments","Gitarre","Fam",0,0,"Harfe","Harfe",1,869
"9",2,9,260,28,"Exp","SemUnRelG",1,"animals","goatSUG.png",10,"clothes","Mantel","Fam",0,0,"Ziege","Ziege",1,897
"9",2,9,262,107,"Exp","Baseline",11,"tableware","jugBAS.png",0,"0","Tohm","Untrained",0,0,"Krug","Krug",1,963
"9",2,9,264,38,"Exp","SemUnRelG",3,"vegetables","broccoliSUG.png",1,"animals","Pferd","Fam",0,0,"Brokkoli","Brokkoli",1,808
"9",2,9,270,26,"Exp","SemUnRelG",1,"animals","giraffeSUG.png",11,"tableware","Tasse","Fam",0,0,"Giraffe","Giraffe",1,803
"9",2,10,275,10,"Exp","SemRelG",11,"tableware","spoonSRG.png",11,"tableware","Tasse","Fam",0,0,"Löffel","Löffel",1,751
"9",2,10,284,102,"Exp","Baseline",8,"human head","moustacheBAS.png",0,"0","Laht","Untrained",0,0,"Schnurrbart","Schnurrbart",1,882
"9",2,10,286,41,"Exp","SemUnRelG",6,"furniture","shelvesSUG.png",1,"animals","Kuh","Fam",0,0,"Regal","Regal",1,897
"9",2,10,288,120,"Exp","Baseline",15,"plants","ivyBAS.png",0,"0","Funne","Untrained",0,0,"Efeu","Efeu",1,1115
"9",2,10,294,47,"Exp","SemUnRelG",14,"electronic devices","radioSUG.png",8,"human head","Mund","Fam",0,0,"Radio","Radio",1,942
"9",2,10,297,118,"Exp","Baseline",13,"insects","spiderBAS.png",0,"0","Riel","Untrained",0,0,"Spinne","Spinne",1,779
"10",4,1,6,13,"Exp","SemRelG",1,"animals","wolfSRG.png",1,"animals","Kuh","Fam",0,0,"Wolf","Wolf",1,740
"10",4,1,8,43,"Exp","SemUnRelG",8,"human head","chinSUG.png",9,"drinks","Kaffee","Fam",0,0,"Kinn","Kinn",1,709
"10",4,1,12,116,"Exp","Baseline",10,"clothes","sockBAS.png",0,"0","Schnist","Untrained",0,0,"Socke","Socke",1,772
"10",4,1,13,27,"Exp","SemUnRelG",6,"furniture","stoolSUG.png",15,"plants","Blume","Fam",0,0,"Hocker","Hocker",1,981
"10",4,1,16,113,"Exp","Baseline",5,"fruit","peachBAS.png",0,"0","Lüfze","Untrained",0,0,"Pfirsich","Pfirsich",1,717
"10",4,1,17,37,"Exp","SemUnRelG",1,"animals","wolfSUG.png",6,"furniture","Stuhl","Fam",0,0,"Wolf","Wolf",1,559
"10",4,1,20,118,"Exp","Baseline",12,"shapes","triangleBAS.png",0,"0","Nörre","Untrained",0,0,"Dreieck","Dreieck",1,1631
"10",4,1,21,39,"Exp","SemUnRelG",3,"vegetables","pumpkinSUG.png",6,"furniture","Schrank","Fam",0,0,"Kürbis","Kürbis",1,1073
"10",4,1,25,102,"Exp","Baseline",9,"drinks","wineBAS.png",0,"0","Lirst","Untrained",0,0,"Wein","Wein",1,606
"10",4,1,30,20,"Exp","SemRelG",10,"clothes","sockSRG.png",10,"clothes","Kleid","Fam",0,0,"Socke","Socke",1,631
"10",4,2,34,119,"Exp","Baseline",14,"electronic devices","telephoneBAS.png",0,"0","Pfenk","Untrained",0,0,"Telefon","Telefon",1,706
"10",4,2,35,31,"Exp","SemUnRelG",9,"drinks","cocktailSUG.png",14,"electronic devices","Kamera","Fam",0,0,"Cocktail","Cocktail",1,724
"10",4,2,40,28,"Exp","SemUnRelG",6,"furniture","couchSUG.png",3,"vegetables","Gurke","Fam",0,0,"Sofa","Sofa",1,866
"10",4,2,42,18,"Exp","SemRelG",7,"transportation","planeSRG.png",7,"transportation","Zug","Fam",0,0,"Flugzeug","Flugzeug",1,745
"10",4,2,50,26,"Exp","SemUnRelG",6,"furniture","shelvesSUG.png",1,"animals","Kuh","Fam",0,0,"Regal","Regal",1,724
"10",4,2,53,109,"Exp","Baseline",1,"animals","wolfBAS.png",0,"0","Wark","Untrained",0,0,"Wolf","Wolf",1,1243
"10",4,3,74,14,"Exp","SemRelG",2,"tools","hexkeySRG.png",2,"tools","Zange","Fam",0,0,"Inbusschlüssel","Inbusschlüssel",1,1259
"10",4,3,82,17,"Exp","SemRelG",5,"fruit","peachSRG.png",5,"fruit","Orange","Fam",0,0,"Pfirsich","Pfirsich",1,667
"10",4,3,85,40,"Exp","SemUnRelG",4,"musical instruments","saxophoneSUG.png",13,"insects","Schmetterling","Fam",0,0,"Saxophon","Saxophon",1,1697
"10",4,4,91,99,"Exp","Baseline",6,"furniture","stoolBAS.png",0,"0","Anster","Untrained",0,0,"Hocker","Hocker",1,795
"10",4,4,92,41,"Exp","SemUnRelG",5,"fruit","peachSUG.png",6,"furniture","Tisch","Fam",0,0,"Pfirsich","Pfirsich",1,740
"10",4,4,96,34,"Exp","SemUnRelG",13,"insects","spiderSUG.png",11,"tableware","Schüssel","Fam",0,0,"Spinne","Spinne",1,690
"10",4,4,100,38,"Exp","SemUnRelG",2,"tools","hexkeySUG.png",9,"drinks","Tee","Fam",0,0,"Inbusschlüssel","Inbusschlüssel",1,850
"10",4,4,106,111,"Exp","Baseline",3,"vegetables","pumpkinBAS.png",0,"0","Gipke","Untrained",0,0,"Kürbis","Ka...äh...Kürbis",0,842
"10",4,4,119,107,"Exp","Baseline",13,"insects","antBAS.png",0,"0","Fatsch","Untrained",0,0,"Ameise","Ameise",1,646
"10",4,5,127,120,"Exp","Baseline",15,"plants","bambooBAS.png",0,"0","Borp","Untrained",0,0,"Bambus","Bambus",1,827
"10",4,5,128,25,"Exp","SemUnRelG",6,"furniture","dresserSUG.png",5,"fruit","Orange","Fam",0,0,"Kommode","Kommode",1,887
"10",4,5,131,21,"Exp","SemRelG",11,"tableware","jugSRG.png",11,"tableware","Schüssel","Fam",0,0,"Krug","Krug",1,759
"10",4,5,137,114,"Exp","Baseline",7,"transportation","planeBAS.png",0,"0","Nipst","Untrained",0,0,"Flugzeug","Flugzeug",1,525
"10",4,5,138,1,"Exp","SemRelG",6,"furniture","dresserSRG.png",6,"furniture","Tisch","Fam",0,0,"Kommode","Kommode",1,591
"10",4,5,140,33,"Exp","SemUnRelG",13,"insects","locustSUG.png",4,"musical instruments","Klavier","Fam",0,0,"Heuschrecke","Grashüpfer",0,895
"10",4,5,142,6,"Exp","SemRelG",9,"drinks","wineSRG.png",9,"drinks","Kaffee","Fam",0,0,"Wein","Wein",1,570
"10",4,5,148,45,"Exp","SemUnRelG",11,"tableware","jugSUG.png",13,"insects","Fliege","Fam",0,0,"Krug","Krug",1,591
"10",4,5,150,108,"Exp","Baseline",13,"insects","bumblebeeBAS.png",0,"0","Schrieg","Untrained",0,0,"Hummel","Hummel",1,727
"10",4,6,153,3,"Exp","SemRelG",6,"furniture","stoolSRG.png",6,"furniture","Bett","Fam",0,0,"Hocker","Hocker",1,971
"10",4,6,157,46,"Exp","SemUnRelG",12,"shapes","triangleSUG.png",13,"insects","Libelle","Fam",0,0,"Dreieck","Dreieck",1,1267
"10",4,6,161,44,"Exp","SemUnRelG",10,"clothes","sockSUG.png",9,"drinks","Milch","Fam",0,0,"Socke","Socke",1,748
"10",4,6,166,100,"Exp","Baseline",6,"furniture","couchBAS.png",0,"0","Nipst","Untrained",0,0,"Sofa","Sofa",1,738
"10",4,6,172,22,"Exp","SemRelG",12,"shapes","triangleSRG.png",12,"shapes","Kreis","Fam",0,0,"Dreieck","Dreieck",1,1188
"10",4,6,177,48,"Exp","SemUnRelG",15,"plants","bambooSUG.png",6,"furniture","Bett","Fam",0,0,"Bambus","Bambus",1,876
"10",4,7,185,30,"Exp","SemUnRelG",9,"drinks","wineSUG.png",8,"human head","Nase","Fam",0,0,"Wein","Wein",1,706
"10",4,7,196,7,"Exp","SemRelG",9,"drinks","cocktailSRG.png",9,"drinks","Wasser","Fam",0,0,"Cocktail","Cocktail",1,604
"10",4,7,198,105,"Exp","Baseline",13,"insects","locustBAS.png",0,"0","Koss","Untrained",0,0,"Heuschrecke","Grashüpfer",0,648
"10",4,7,201,47,"Exp","SemUnRelG",14,"electronic devices","telephoneSUG.png",9,"drinks","Wasser","Fam",0,0,"Telefon","Telefon",1,530
"10",4,7,207,104,"Exp","Baseline",9,"drinks","juiceBAS.png",0,"0","Grölf","Untrained",0,0,"Saft","Saft",1,897
"10",4,7,208,12,"Exp","SemRelG",13,"insects","bumblebeeSRG.png",13,"insects","Käfer","Fam",0,0,"Hummel","Hummel",1,622
"10",4,8,220,32,"Exp","SemUnRelG",9,"drinks","juiceSUG.png",7,"transportation","Zug","Fam",0,0,"Saft","Saft",1,926
"10",4,8,222,23,"Exp","SemRelG",14,"electronic devices","telephoneSRG.png",14,"electronic devices","Kamera","Fam",0,0,"Telefon","Telefon",1,512
"10",4,8,226,11,"Exp","SemRelG",13,"insects","antSRG.png",13,"insects","Libelle","Fam",0,0,"Ameise","Ameise",1,591
"10",4,8,230,5,"Exp","SemRelG",9,"drinks","beerSRG.png",9,"drinks","Tee","Fam",0,0,"Bier","Bier",1,911
"10",4,8,234,19,"Exp","SemRelG",8,"human head","chinSRG.png",8,"human head","Nase","Fam",0,0,"Kinn","Kinn",1,795
"10",4,8,235,110,"Exp","Baseline",2,"tools","hexkeyBAS.png",0,"0","Braktel","Untrained",0,0,"Inbusschlüssel","Inbusschlüssel",1,871
"10",4,8,239,106,"Exp","Baseline",13,"insects","spiderBAS.png",0,"0","Riel","Untrained",0,0,"Spinne","Spinne",1,787
"10",4,9,251,101,"Exp","Baseline",9,"drinks","beerBAS.png",0,"0","Tirk","Untrained",0,0,"Bier","Bier",1,690
"10",4,9,257,36,"Exp","SemUnRelG",13,"insects","bumblebeeSUG.png",10,"clothes","Kleid","Fam",0,0,"Hummel","Hummel",1,688
"10",4,9,258,16,"Exp","SemRelG",4,"musical instruments","saxophoneSRG.png",4,"musical instruments","Klavier","Fam",0,0,"Saxophon","Saxophon",1,855
"10",4,9,259,97,"Exp","Baseline",6,"furniture","dresserBAS.png",0,"0","Ziftel","Untrained",0,0,"Kommode","Kommode",1,685
"10",4,9,263,117,"Exp","Baseline",11,"tableware","jugBAS.png",0,"0","Limster","Untrained",0,0,"Krug","Krug",1,703
"10",4,9,266,15,"Exp","SemRelG",3,"vegetables","pumpkinSRG.png",3,"vegetables","Gurke","Fam",0,0,"Kürbis","Kürbis",1,832
"10",4,9,267,103,"Exp","Baseline",9,"drinks","cocktailBAS.png",0,"0","Schomkel","Untrained",0,0,"Cocktail","Cocktail",1,591
"10",4,9,270,24,"Exp","SemRelG",15,"plants","bambooSRG.png",15,"plants","Blume","Fam",0,0,"Bambus","Bambus",1,706
"10",4,10,271,35,"Exp","SemUnRelG",13,"insects","antSUG.png",12,"shapes","Kreis","Fam",0,0,"Ameise","Ameise",1,992
"10",4,10,273,98,"Exp","Baseline",6,"furniture","shelvesBAS.png",0,"0","Rilmung","Untrained",0,0,"Regal","Regal",1,751
"10",4,10,277,8,"Exp","SemRelG",9,"drinks","juiceSRG.png",9,"drinks","Milch","Fam",0,0,"Saft","Saft",1,648
"10",4,10,278,115,"Exp","Baseline",8,"human head","chinBAS.png",0,"0","Jaste","Untrained",0,0,"Kinn","Kinn",1,527
"10",4,10,279,42,"Exp","SemUnRelG",7,"transportation","planeSUG.png",13,"insects","Käfer","Fam",0,0,"Flugzeug","Flugzeug",1,473
"10",4,10,281,10,"Exp","SemRelG",13,"insects","spiderSRG.png",13,"insects","Fliege","Fam",0,0,"Spinne","Spinne",1,641
"10",4,10,285,2,"Exp","SemRelG",6,"furniture","shelvesSRG.png",6,"furniture","Stuhl","Fam",0,0,"Regal","Regal",1,627
"10",4,10,287,29,"Exp","SemUnRelG",9,"drinks","beerSUG.png",2,"tools","Zange","Fam",0,0,"Bier","Bier",1,682
"10",4,10,290,112,"Exp","Baseline",4,"musical instruments","saxophoneBAS.png",0,"0","Batte","Untrained",0,0,"Saxophon","Saxophon",1,856
"10",4,10,291,9,"Exp","SemRelG",13,"insects","locustSRG.png",13,"insects","Schmetterling","Fam",0,0,"Heuschrecke","Grashüpfer",0,703
"10",4,10,295,4,"Exp","SemRelG",6,"furniture","couchSRG.png",6,"furniture","Schrank","Fam",0,0,"Sofa","Sofa",1,717
"11",2,1,1,105,"Exp","Baseline",11,"tableware","teapotBAS.png",0,"0","Binsch","Untrained",0,0,"Teekanne","Teekanne",1,829
"11",2,1,3,32,"Exp","SemUnRelG",8,"human head","eyebrowSUG.png",3,"vegetables","Tomate","Fam",0,0,"Augenbraue","Augenbraue",1,777
"11",2,1,8,44,"Exp","SemUnRelG",10,"clothes","suitSUG.png",11,"tableware","Glas","Fam",0,0,"Anzug","Anzug",1,743
"11",2,1,18,17,"Exp","SemRelG",6,"furniture","shelvesSRG.png",6,"furniture","Stuhl","Fam",0,0,"Regal","Regal",1,973
"11",2,1,22,19,"Exp","SemRelG",9,"drinks","wineSRG.png",9,"drinks","Kaffee","Fam",0,0,"Wein","Wein",1,667
"11",2,1,23,117,"Exp","Baseline",12,"shapes","rectangleBAS.png",0,"0","Dichse","Untrained",0,0,"Rechteck","Rechteck",1,811
"11",2,1,24,36,"Exp","SemUnRelG",11,"tableware","forkSUG.png",7,"transportation","Bus","Fam",0,0,"Gabel","Gabel",1,711
"11",2,1,27,98,"Exp","Baseline",1,"animals","giraffeBAS.png",0,"0","Flimsch","Untrained",0,0,"Giraffe","Giraffe",1,939
"11",2,1,30,18,"Exp","SemRelG",7,"transportation","helicopterSRG.png",7,"transportation","Bus","Fam",0,0,"Hubschrauber","Hubschrauber",1,765
"11",2,2,32,43,"Exp","SemUnRelG",9,"drinks","wineSUG.png",8,"human head","Nase","Fam",0,0,"Wein","Wein",1,596
"11",2,2,34,9,"Exp","SemRelG",11,"tableware","teapotSRG.png",11,"tableware","Teller","Fam",0,0,"Teekanne","Teekanne",1,740
"11",2,2,37,48,"Exp","SemUnRelG",15,"plants","ivySUG.png",12,"shapes","Stern","Fam",0,0,"Efeu","Farn",0,790
"11",2,2,43,116,"Exp","Baseline",10,"clothes","suitBAS.png",0,"0","Bolst","Untrained",0,0,"Anzug","Anzug",1,601
"11",2,2,45,1,"Exp","SemRelG",1,"animals","elephantSRG.png",1,"animals","Katze","Fam",0,0,"Elefant","Elefant",1,593
"11",2,2,47,112,"Exp","Baseline",5,"fruit","watermelonBAS.png",0,"0","Knosch","Untrained",0,0,"Wassermelone","Wassermelone",1,727
"11",2,2,56,106,"Exp","Baseline",11,"tableware","spoonBAS.png",0,"0","Dulp","Untrained",0,0,"Löffel","Löffel",1,698
"11",2,2,59,24,"Exp","SemRelG",15,"plants","ivySRG.png",15,"plants","Kaktus","Fam",0,0,"Efeu","Efeu",1,1008
"11",2,3,71,114,"Exp","Baseline",7,"transportation","helicopterBAS.png",0,"0","Mefst","Untrained",0,0,"Hubschrauber","Hubschrauber",1,688
"11",2,3,79,25,"Exp","SemUnRelG",1,"animals","elephantSUG.png",2,"tools","Hammer","Fam",0,0,"Elefant","Elefant",1,604
"11",2,3,88,6,"Exp","SemRelG",8,"human head","moustacheSRG.png",8,"human head","Mund","Fam",0,0,"Schnurrbart","Schnurrbart",1,722
"11",2,4,102,115,"Exp","Baseline",9,"drinks","wineBAS.png",0,"0","Lirst","Untrained",0,0,"Wein","Wein",1,1233
"11",2,4,109,23,"Exp","SemRelG",14,"electronic devices","radioSRG.png",14,"electronic devices","Computer","Fam",0,0,"Radio","Radio",1,591
"11",2,4,114,97,"Exp","Baseline",1,"animals","elephantBAS.png",0,"0","Korm","Untrained",0,0,"Elefant","Elefant",1,596
"11",2,4,115,45,"Exp","SemUnRelG",12,"shapes","rectangleSUG.png",1,"animals","Hund","Fam",0,0,"Rechteck","Rechteck",1,662
"11",2,4,118,13,"Exp","SemRelG",2,"tools","screwdriverSRG.png",2,"tools","Hammer","Fam",0,0,"Schraubenzieher","Schraubenzieher",1,656
"11",2,5,121,39,"Exp","SemUnRelG",4,"musical instruments","harpSUG.png",1,"animals","Katze","Fam",0,0,"Harfe","Harfe",1,724
"11",2,5,126,3,"Exp","SemRelG",1,"animals","wolfSRG.png",1,"animals","Kuh","Fam",0,0,"Wolf","Wolf",1,787
"11",2,5,130,11,"Exp","SemRelG",11,"tableware","jugSRG.png",11,"tableware","Schüssel","Fam",0,0,"Krug","Krug",1,1288
"11",2,5,131,109,"Exp","Baseline",2,"tools","screwdriverBAS.png",0,"0","Rosk","Untrained",0,0,"Schraubenzieher","Schraubenzieher",1,711
"11",2,5,134,30,"Exp","SemUnRelG",8,"human head","moustacheSUG.png",14,"electronic devices","Computer","Fam",0,0,"Schnurrbart","Schnurrbart",1,593
"11",2,5,136,100,"Exp","Baseline",1,"animals","goatBAS.png",0,"0","Zonte","Untrained",0,0,"Ziege","Ziege",1,761
"11",2,5,146,37,"Exp","SemUnRelG",2,"tools","screwdriverSUG.png",8,"human head","Auge","Fam",0,0,"Schraubenzieher","Schraubenzieher",1,620
"11",2,5,147,22,"Exp","SemRelG",13,"insects","spiderSRG.png",13,"insects","Fliege","Fam",0,0,"Spinne","Spinne",1,916
"11",2,6,151,7,"Exp","SemRelG",8,"human head","chinSRG.png",8,"human head","Nase","Fam",0,0,"Kinn","Kinn",1,641
"11",2,6,153,113,"Exp","Baseline",6,"furniture","shelvesBAS.png",0,"0","Rilmung","Untrained",0,0,"Regal","Regal",1,635
"11",2,6,154,35,"Exp","SemUnRelG",11,"tableware","jugSUG.png",13,"insects","Fliege","Fam",0,0,"Krug","Krug",1,570
"11",2,6,161,104,"Exp","Baseline",8,"human head","eyebrowBAS.png",0,"0","Danpel","Untrained",0,0,"Augenbraue","Augenbraue",1,779
"11",2,6,167,20,"Exp","SemRelG",10,"clothes","suitSRG.png",10,"clothes","Mantel","Fam",0,0,"Anzug","Anzug",1,662
"11",2,6,168,33,"Exp","SemUnRelG",11,"tableware","teapotSUG.png",4,"musical instruments","Gitarre","Fam",0,0,"Teekanne","Teekanne",1,821
"11",2,6,173,46,"Exp","SemUnRelG",13,"insects","spiderSUG.png",11,"tableware","Schüssel","Fam",0,0,"Spinne","Spinne",1,541
"11",2,7,182,40,"Exp","SemUnRelG",5,"fruit","watermelonSUG.png",11,"tableware","Teller","Fam",0,0,"Wassermelone","Wassermelone",1,651
"11",2,7,183,111,"Exp","Baseline",4,"musical instruments","harpBAS.png",0,"0","Prönke","Untrained",0,0,"Harfe","Harfe",1,562
"11",2,7,186,27,"Exp","SemUnRelG",1,"animals","wolfSUG.png",6,"furniture","Stuhl","Fam",0,0,"Wolf","Wolf",1,662
"11",2,7,192,42,"Exp","SemUnRelG",7,"transportation","helicopterSUG.png",8,"human head","Ohr","Fam",0,0,"Hubschrauber","Hubschrauber",1,761
"11",2,7,194,8,"Exp","SemRelG",8,"human head","eyebrowSRG.png",8,"human head","Ohr","Fam",0,0,"Augenbraue","Augenbraue",1,675
"11",2,7,195,119,"Exp","Baseline",14,"electronic devices","radioBAS.png",0,"0","Plümme","Untrained",0,0,"Radio","Radio",1,601
"11",2,7,198,4,"Exp","SemRelG",1,"animals","goatSRG.png",1,"animals","Pferd","Fam",0,0,"Ziege","Ziege",1,570
"11",2,7,199,108,"Exp","Baseline",11,"tableware","forkBAS.png",0,"0","Krülp","Untrained",0,0,"Gabel","Gabel",1,572
"11",2,7,204,29,"Exp","SemUnRelG",8,"human head","beardSUG.png",5,"fruit","Apfel","Fam",0,0,"Bart","Bart",1,774
"11",2,7,208,99,"Exp","Baseline",1,"animals","wolfBAS.png",0,"0","Wark","Untrained",0,0,"Wolf","Wolf",1,572
"11",2,7,209,34,"Exp","SemUnRelG",11,"tableware","spoonSUG.png",15,"plants","Kaktus","Fam",0,0,"Löffel","Lö...Löffel",0,900
"11",2,8,215,16,"Exp","SemRelG",5,"fruit","watermelonSRG.png",5,"fruit","Apfel","Fam",0,0,"Wassermelone","Wassermelone",1,622
"11",2,8,216,101,"Exp","Baseline",8,"human head","beardBAS.png",0,"0","Flerst","Untrained",0,0,"Bart","Bart",1,601
"11",2,8,226,103,"Exp","Baseline",8,"human head","chinBAS.png",0,"0","Jaste","Untrained",0,0,"Kinn","Kinn",1,735
"11",2,8,232,14,"Exp","SemRelG",3,"vegetables","broccoliSRG.png",3,"vegetables","Tomate","Fam",0,0,"Brokkoli","Brokkoli",1,701
"11",2,8,236,5,"Exp","SemRelG",8,"human head","beardSRG.png",8,"human head","Auge","Fam",0,0,"Bart","Bart",1,1131
"11",2,9,241,12,"Exp","SemRelG",11,"tableware","forkSRG.png",11,"tableware","Glas","Fam",0,0,"Gabel","Gabel",1,554
"11",2,9,245,21,"Exp","SemRelG",12,"shapes","rectangleSRG.png",12,"shapes","Stern","Fam",0,0,"Rechteck","Rechteck",1,795
"11",2,9,248,31,"Exp","SemUnRelG",8,"human head","chinSUG.png",9,"drinks","Kaffee","Fam",0,0,"Kinn","Kinn",1,722
"11",2,9,249,2,"Exp","SemRelG",1,"animals","giraffeSRG.png",1,"animals","Hund","Fam",0,0,"Giraffe","Giraffe",1,614
"11",2,9,250,110,"Exp","Baseline",3,"vegetables","broccoliBAS.png",0,"0","Trange","Untrained",0,0,"Brokkoli","Brokkoli",1,559
"11",2,9,254,15,"Exp","SemRelG",4,"musical instruments","harpSRG.png",4,"musical instruments","Gitarre","Fam",0,0,"Harfe","Harfe",1,604
"11",2,9,260,28,"Exp","SemUnRelG",1,"animals","goatSUG.png",10,"clothes","Mantel","Fam",0,0,"Ziege","Ziege",1,641
"11",2,9,262,107,"Exp","Baseline",11,"tableware","jugBAS.png",0,"0","Tohm","Untrained",0,0,"Krug","Krug",1,583
"11",2,9,264,38,"Exp","SemUnRelG",3,"vegetables","broccoliSUG.png",1,"animals","Pferd","Fam",0,0,"Brokkoli","Brokkoli",1,620
"11",2,9,270,26,"Exp","SemUnRelG",1,"animals","giraffeSUG.png",11,"tableware","Tasse","Fam",0,0,"Giraffe","Giraffe",1,589
"11",2,10,275,10,"Exp","SemRelG",11,"tableware","spoonSRG.png",11,"tableware","Tasse","Fam",0,0,"Löffel","Löffel",1,567
"11",2,10,284,102,"Exp","Baseline",8,"human head","moustacheBAS.png",0,"0","Laht","Untrained",0,0,"Schnurrbart","Schnurrbart",1,808
"11",2,10,286,41,"Exp","SemUnRelG",6,"furniture","shelvesSUG.png",1,"animals","Kuh","Fam",0,0,"Regal","Regal",1,612
"11",2,10,288,120,"Exp","Baseline",15,"plants","ivyBAS.png",0,"0","Funne","Untrained",0,0,"Efeu","Efeu",1,714
"11",2,10,294,47,"Exp","SemUnRelG",14,"electronic devices","radioSUG.png",8,"human head","Mund","Fam",0,0,"Radio","Radio",1,583
"11",2,10,297,118,"Exp","Baseline",13,"insects","spiderBAS.png",0,"0","Riel","Untrained",0,0,"Spinne","Spinne",1,643
"12",2,1,1,105,"Exp","Baseline",11,"tableware","teapotBAS.png",0,"0","Binsch","Untrained",0,0,"Teekanne","Teekanne",1,1149
"12",2,1,3,32,"Exp","SemUnRelG",8,"human head","eyebrowSUG.png",3,"vegetables","Tomate","Fam",0,0,"Augenbraue","Augenbraue",1,1663
"12",2,1,8,44,"Exp","SemUnRelG",10,"clothes","suitSUG.png",11,"tableware","Glas","Fam",0,0,"Anzug","Anzug",1,1023
"12",2,1,18,17,"Exp","SemRelG",6,"furniture","shelvesSRG.png",6,"furniture","Stuhl","Fam",0,0,"Regal","Regal",1,1031
"12",2,1,22,19,"Exp","SemRelG",9,"drinks","wineSRG.png",9,"drinks","Kaffee","Fam",0,0,"Wein","Wein",1,950
"12",2,1,23,117,"Exp","Baseline",12,"shapes","rectangleBAS.png",0,"0","Dichse","Untrained",0,0,"Rechteck","Viereck",0,1519
"12",2,1,24,36,"Exp","SemUnRelG",11,"tableware","forkSUG.png",7,"transportation","Bus","Fam",0,0,"Gabel","Gabel",1,1013
"12",2,1,27,98,"Exp","Baseline",1,"animals","giraffeBAS.png",0,"0","Flimsch","Untrained",0,0,"Giraffe","Giraffe",1,759
"12",2,1,30,18,"Exp","SemRelG",7,"transportation","helicopterSRG.png",7,"transportation","Bus","Fam",0,0,"Hubschrauber","Helicopter",0,1360
"12",2,2,32,43,"Exp","SemUnRelG",9,"drinks","wineSUG.png",8,"human head","Nase","Fam",0,0,"Wein","Wein",1,800
"12",2,2,34,9,"Exp","SemRelG",11,"tableware","teapotSRG.png",11,"tableware","Teller","Fam",0,0,"Teekanne","Teekanne",1,1013
"12",2,2,37,48,"Exp","SemUnRelG",15,"plants","ivySUG.png",12,"shapes","Stern","Fam",0,0,"Efeu","Efeu",1,1094
"12",2,2,43,116,"Exp","Baseline",10,"clothes","suitBAS.png",0,"0","Bolst","Untrained",0,0,"Anzug","Anzug",1,814
"12",2,2,45,1,"Exp","SemRelG",1,"animals","elephantSRG.png",1,"animals","Katze","Fam",0,0,"Elefant","Elefant",1,648
"12",2,2,47,112,"Exp","Baseline",5,"fruit","watermelonBAS.png",0,"0","Knosch","Untrained",0,0,"Wassermelone","Wassermelone",1,829
"12",2,2,56,106,"Exp","Baseline",11,"tableware","spoonBAS.png",0,"0","Dulp","Untrained",0,0,"Löffel","Löffel",1,895
"12",2,2,59,24,"Exp","SemRelG",15,"plants","ivySRG.png",15,"plants","Kaktus","Fam",0,0,"Efeu","Efeu",1,790
"12",2,3,71,114,"Exp","Baseline",7,"transportation","helicopterBAS.png",0,"0","Mefst","Untrained",0,0,"Hubschrauber","Helicopter",0,934
"12",2,3,79,25,"Exp","SemUnRelG",1,"animals","elephantSUG.png",2,"tools","Hammer","Fam",0,0,"Elefant","Elefant",1,662
"12",2,3,88,6,"Exp","SemRelG",8,"human head","moustacheSRG.png",8,"human head","Mund","Fam",0,0,"Schnurrbart","Schnurrbart",1,895
"12",2,4,102,115,"Exp","Baseline",9,"drinks","wineBAS.png",0,"0","Lirst","Untrained",0,0,"Wein","Wein",1,874
"12",2,4,109,23,"Exp","SemRelG",14,"electronic devices","radioSRG.png",14,"electronic devices","Computer","Fam",0,0,"Radio","Radio",1,751
"12",2,4,114,97,"Exp","Baseline",1,"animals","elephantBAS.png",0,"0","Korm","Untrained",0,0,"Elefant","Elefant",1,835
"12",2,4,115,45,"Exp","SemUnRelG",12,"shapes","rectangleSUG.png",1,"animals","Hund","Fam",0,0,"Rechteck","Rechteck",1,942
"12",2,4,118,13,"Exp","SemRelG",2,"tools","screwdriverSRG.png",2,"tools","Hammer","Fam",0,0,"Schraubenzieher","Schraubendreher",0,879
"12",2,5,121,39,"Exp","SemUnRelG",4,"musical instruments","harpSUG.png",1,"animals","Katze","Fam",0,0,"Harfe","Harfe",1,1317
"12",2,5,126,3,"Exp","SemRelG",1,"animals","wolfSRG.png",1,"animals","Kuh","Fam",0,0,"Wolf","Wolf",1,735
"12",2,5,130,11,"Exp","SemRelG",11,"tableware","jugSRG.png",11,"tableware","Schüssel","Fam",0,0,"Krug","Krug",1,2095
"12",2,5,131,109,"Exp","Baseline",2,"tools","screwdriverBAS.png",0,"0","Rosk","Untrained",0,0,"Schraubenzieher","Schraubendreher",0,816
"12",2,5,134,30,"Exp","SemUnRelG",8,"human head","moustacheSUG.png",14,"electronic devices","Computer","Fam",0,0,"Schnurrbart","Schnurrbart",1,740
"12",2,5,136,100,"Exp","Baseline",1,"animals","goatBAS.png",0,"0","Zonte","Untrained",0,0,"Ziege","Ziege",1,1676
"12",2,5,146,37,"Exp","SemUnRelG",2,"tools","screwdriverSUG.png",8,"human head","Auge","Fam",0,0,"Schraubenzieher","Schraubendreher",0,1186
"12",2,5,147,22,"Exp","SemRelG",13,"insects","spiderSRG.png",13,"insects","Fliege","Fam",0,0,"Spinne","Spinne",1,869
"12",2,6,151,7,"Exp","SemRelG",8,"human head","chinSRG.png",8,"human head","Nase","Fam",0,0,"Kinn","Kinn",1,958
"12",2,6,153,113,"Exp","Baseline",6,"furniture","shelvesBAS.png",0,"0","Rilmung","Untrained",0,0,"Regal","Regal",1,911
"12",2,6,154,35,"Exp","SemUnRelG",11,"tableware","jugSUG.png",13,"insects","Fliege","Fam",0,0,"Krug","Krug",1,829
"12",2,6,161,104,"Exp","Baseline",8,"human head","eyebrowBAS.png",0,"0","Danpel","Untrained",0,0,"Augenbraue","Augenbraue",1,751
"12",2,6,167,20,"Exp","SemRelG",10,"clothes","suitSRG.png",10,"clothes","Mantel","Fam",0,0,"Anzug","Anzug",1,772
"12",2,6,168,33,"Exp","SemUnRelG",11,"tableware","teapotSUG.png",4,"musical instruments","Gitarre","Fam",0,0,"Teekanne","Teekanne",1,1728
"12",2,6,173,46,"Exp","SemUnRelG",13,"insects","spiderSUG.png",11,"tableware","Schüssel","Fam",0,0,"Spinne","Spinne",1,717
"12",2,7,182,40,"Exp","SemUnRelG",5,"fruit","watermelonSUG.png",11,"tableware","Teller","Fam",0,0,"Wassermelone","Wassermelone",1,832
"12",2,7,183,111,"Exp","Baseline",4,"musical instruments","harpBAS.png",0,"0","Prönke","Untrained",0,0,"Harfe","Harfe",1,1178
"12",2,7,186,27,"Exp","SemUnRelG",1,"animals","wolfSUG.png",6,"furniture","Stuhl","Fam",0,0,"Wolf","Wolf",1,732
"12",2,7,192,42,"Exp","SemUnRelG",7,"transportation","helicopterSUG.png",8,"human head","Ohr","Fam",0,0,"Hubschrauber","Helicopter",0,821
"12",2,7,194,8,"Exp","SemRelG",8,"human head","eyebrowSRG.png",8,"human head","Ohr","Fam",0,0,"Augenbraue","Augenbraue",1,1005
"12",2,7,195,119,"Exp","Baseline",14,"electronic devices","radioBAS.png",0,"0","Plümme","Untrained",0,0,"Radio","Radio",1,855
"12",2,7,198,4,"Exp","SemRelG",1,"animals","goatSRG.png",1,"animals","Pferd","Fam",0,0,"Ziege","Ziege",1,973
"12",2,7,199,108,"Exp","Baseline",11,"tableware","forkBAS.png",0,"0","Krülp","Untrained",0,0,"Gabel","Gabel",1,690
"12",2,7,204,29,"Exp","SemUnRelG",8,"human head","beardSUG.png",5,"fruit","Apfel","Fam",0,0,"Bart","Bart",1,976
"12",2,7,208,99,"Exp","Baseline",1,"animals","wolfBAS.png",0,"0","Wark","Untrained",0,0,"Wolf","Wolf",1,688
"12",2,7,209,34,"Exp","SemUnRelG",11,"tableware","spoonSUG.png",15,"plants","Kaktus","Fam",0,0,"Löffel","Löffel",1,937
"12",2,8,215,16,"Exp","SemRelG",5,"fruit","watermelonSRG.png",5,"fruit","Apfel","Fam",0,0,"Wassermelone","Wassermelone",1,798
"12",2,8,216,101,"Exp","Baseline",8,"human head","beardBAS.png",0,"0","Flerst","Untrained",0,0,"Bart","Bart",1,950
"12",2,8,226,103,"Exp","Baseline",8,"human head","chinBAS.png",0,"0","Jaste","Untrained",0,0,"Kinn","Kinn",1,1107
"12",2,8,232,14,"Exp","SemRelG",3,"vegetables","broccoliSRG.png",3,"vegetables","Tomate","Fam",0,0,"Brokkoli","Brokkoli",1,706
"12",2,8,236,5,"Exp","SemRelG",8,"human head","beardSRG.png",8,"human head","Auge","Fam",0,0,"Bart","Bart",1,992
"12",2,9,241,12,"Exp","SemRelG",11,"tableware","forkSRG.png",11,"tableware","Glas","Fam",0,0,"Gabel","Gabel",1,840
"12",2,9,245,21,"Exp","SemRelG",12,"shapes","rectangleSRG.png",12,"shapes","Stern","Fam",0,0,"Rechteck","Rechteck",1,1044
"12",2,9,248,31,"Exp","SemUnRelG",8,"human head","chinSUG.png",9,"drinks","Kaffee","Fam",0,0,"Kinn","Kinn",1,966
"12",2,9,249,2,"Exp","SemRelG",1,"animals","giraffeSRG.png",1,"animals","Hund","Fam",0,0,"Giraffe","Giraffe",1,806
"12",2,9,250,110,"Exp","Baseline",3,"vegetables","broccoliBAS.png",0,"0","Trange","Untrained",0,0,"Brokkoli","Brokkoli",1,779
"12",2,9,254,15,"Exp","SemRelG",4,"musical instruments","harpSRG.png",4,"musical instruments","Gitarre","Fam",0,0,"Harfe","Harfe",1,730
"12",2,9,260,28,"Exp","SemUnRelG",1,"animals","goatSUG.png",10,"clothes","Mantel","Fam",0,0,"Ziege","Ziege",1,863
"12",2,9,262,107,"Exp","Baseline",11,"tableware","jugBAS.png",0,"0","Tohm","Untrained",0,0,"Krug","Krug",1,1039
"12",2,9,264,38,"Exp","SemUnRelG",3,"vegetables","broccoliSUG.png",1,"animals","Pferd","Fam",0,0,"Brokkoli","Brokkoli",1,803
"12",2,9,270,26,"Exp","SemUnRelG",1,"animals","giraffeSUG.png",11,"tableware","Tasse","Fam",0,0,"Giraffe","Giraffe",1,648
"12",2,10,275,10,"Exp","SemRelG",11,"tableware","spoonSRG.png",11,"tableware","Tasse","Fam",0,0,"Löffel","Löffel",1,942
"12",2,10,284,102,"Exp","Baseline",8,"human head","moustacheBAS.png",0,"0","Laht","Untrained",0,0,"Schnurrbart","Schnurrbart",1,1589
"12",2,10,286,41,"Exp","SemUnRelG",6,"furniture","shelvesSUG.png",1,"animals","Kuh","Fam",0,0,"Regal","Regal",1,892
"12",2,10,288,120,"Exp","Baseline",15,"plants","ivyBAS.png",0,"0","Funne","Untrained",0,0,"Efeu","Efeu",1,748
"12",2,10,294,47,"Exp","SemUnRelG",14,"electronic devices","radioSUG.png",8,"human head","Mund","Fam",0,0,"Radio","Radio",1,824
"12",2,10,297,118,"Exp","Baseline",13,"insects","spiderBAS.png",0,"0","Riel","Untrained",0,0,"Spinne","Spinne",1,743
"15",2,1,1,105,"Exp","Baseline",11,"tableware","teapotBAS.png",0,"0","Binsch","Untrained",0,0,"Teekanne","Teekanne",1,1104
"15",2,1,3,32,"Exp","SemUnRelG",8,"human head","eyebrowSUG.png",3,"vegetables","Tomate","Fam",0,0,"Augenbraue","Augenbraue",1,795
"15",2,1,8,44,"Exp","SemUnRelG",10,"clothes","suitSUG.png",11,"tableware","Glas","Fam",0,0,"Anzug","Anzug",1,756
"15",2,1,18,17,"Exp","SemRelG",6,"furniture","shelvesSRG.png",6,"furniture","Stuhl","Fam",0,0,"Regal","Regal",1,1645
"15",2,1,22,19,"Exp","SemRelG",9,"drinks","wineSRG.png",9,"drinks","Kaffee","Fam",0,0,"Wein","Wein",1,876
"15",2,1,23,117,"Exp","Baseline",12,"shapes","rectangleBAS.png",0,"0","Dichse","Untrained",0,0,"Rechteck","Rechteck",1,1899
"15",2,1,24,36,"Exp","SemUnRelG",11,"tableware","forkSUG.png",7,"transportation","Bus","Fam",0,0,"Gabel","Gabel",1,711
"15",2,1,27,98,"Exp","Baseline",1,"animals","giraffeBAS.png",0,"0","Flimsch","Untrained",0,0,"Giraffe","Giraffe",1,727
"15",2,1,30,18,"Exp","SemRelG",7,"transportation","helicopterSRG.png",7,"transportation","Bus","Fam",0,0,"Hubschrauber","Hubschrauber",1,1696
"15",2,2,32,43,"Exp","SemUnRelG",9,"drinks","wineSUG.png",8,"human head","Nase","Fam",0,0,"Wein","Wein",1,677
"15",2,2,34,9,"Exp","SemRelG",11,"tableware","teapotSRG.png",11,"tableware","Teller","Fam",0,0,"Teekanne","Teekanne",1,858
"15",2,2,37,48,"Exp","SemUnRelG",15,"plants","ivySUG.png",12,"shapes","Stern","Fam",0,0,"Efeu","Efeu",1,1039
"15",2,2,43,116,"Exp","Baseline",10,"clothes","suitBAS.png",0,"0","Bolst","Untrained",0,0,"Anzug","Anzug",1,667
"15",2,2,45,1,"Exp","SemRelG",1,"animals","elephantSRG.png",1,"animals","Katze","Fam",0,0,"Elefant","Elefant",1,1183
"15",2,2,47,112,"Exp","Baseline",5,"fruit","watermelonBAS.png",0,"0","Knosch","Untrained",0,0,"Wassermelone","Wassermelone",1,688
"15",2,2,56,106,"Exp","Baseline",11,"tableware","spoonBAS.png",0,"0","Dulp","Untrained",0,0,"Löffel","Löffel",1,1201
"15",2,2,59,24,"Exp","SemRelG",15,"plants","ivySRG.png",15,"plants","Kaktus","Fam",0,0,"Efeu","Efeu",1,1574
"15",2,3,71,114,"Exp","Baseline",7,"transportation","helicopterBAS.png",0,"0","Mefst","Untrained",0,0,"Hubschrauber","Hubschrauber",1,675
"15",2,3,79,25,"Exp","SemUnRelG",1,"animals","elephantSUG.png",2,"tools","Hammer","Fam",0,0,"Elefant","Elefant",1,1162
"15",2,3,88,6,"Exp","SemRelG",8,"human head","moustacheSRG.png",8,"human head","Mund","Fam",0,0,"Schnurrbart","Schnurrbart",1,1212
"15",2,4,102,115,"Exp","Baseline",9,"drinks","wineBAS.png",0,"0","Lirst","Untrained",0,0,"Wein","Wein",1,677
"15",2,4,109,23,"Exp","SemRelG",14,"electronic devices","radioSRG.png",14,"electronic devices","Computer","Fam",0,0,"Radio","Radio",1,790
"15",2,4,114,97,"Exp","Baseline",1,"animals","elephantBAS.png",0,"0","Korm","Untrained",0,0,"Elefant","Elefant",1,586
"15",2,4,115,45,"Exp","SemUnRelG",12,"shapes","rectangleSUG.png",1,"animals","Hund","Fam",0,0,"Rechteck","Rechteck",1,1154
"15",2,4,118,13,"Exp","SemRelG",2,"tools","screwdriverSRG.png",2,"tools","Hammer","Fam",0,0,"Schraubenzieher","Schrauben...dreher",0,1298
"15",2,5,121,39,"Exp","SemUnRelG",4,"musical instruments","harpSUG.png",1,"animals","Katze","Fam",0,0,"Harfe","Harfe",1,751
"15",2,5,126,3,"Exp","SemRelG",1,"animals","wolfSRG.png",1,"animals","Kuh","Fam",0,0,"Wolf","Wolf",1,1270
"15",2,5,130,11,"Exp","SemRelG",11,"tableware","jugSRG.png",11,"tableware","Schüssel","Fam",0,0,"Krug",NA,0,-1
"15",2,5,131,109,"Exp","Baseline",2,"tools","screwdriverBAS.png",0,"0","Rosk","Untrained",0,0,"Schraubenzieher","Schraubenzieher",1,1862
"15",2,5,134,30,"Exp","SemUnRelG",8,"human head","moustacheSUG.png",14,"electronic devices","Computer","Fam",0,0,"Schnurrbart","Schnurrbart",1,751
"15",2,5,136,100,"Exp","Baseline",1,"animals","goatBAS.png",0,"0","Zonte","Untrained",0,0,"Ziege","Ziege",1,740
"15",2,5,146,37,"Exp","SemUnRelG",2,"tools","screwdriverSUG.png",8,"human head","Auge","Fam",0,0,"Schraubenzieher","Schraubenzieher",1,803
"15",2,5,147,22,"Exp","SemRelG",13,"insects","spiderSRG.png",13,"insects","Fliege","Fam",0,0,"Spinne","Spinne",1,633
"15",2,6,151,7,"Exp","SemRelG",8,"human head","chinSRG.png",8,"human head","Nase","Fam",0,0,"Kinn","Kinn",1,769
"15",2,6,153,113,"Exp","Baseline",6,"furniture","shelvesBAS.png",0,"0","Rilmung","Untrained",0,0,"Regal","Regal",1,1343
"15",2,6,154,35,"Exp","SemUnRelG",11,"tableware","jugSUG.png",13,"insects","Fliege","Fam",0,0,"Krug","Krug",1,706
"15",2,6,161,104,"Exp","Baseline",8,"human head","eyebrowBAS.png",0,"0","Danpel","Untrained",0,0,"Augenbraue","Augenbraue",1,958
"15",2,6,167,20,"Exp","SemRelG",10,"clothes","suitSRG.png",10,"clothes","Mantel","Fam",0,0,"Anzug","Anzug",1,785
"15",2,6,168,33,"Exp","SemUnRelG",11,"tableware","teapotSUG.png",4,"musical instruments","Gitarre","Fam",0,0,"Teekanne","Teekanne",1,897
"15",2,6,173,46,"Exp","SemUnRelG",13,"insects","spiderSUG.png",11,"tableware","Schüssel","Fam",0,0,"Spinne","Spinne",1,588
"15",2,7,182,40,"Exp","SemUnRelG",5,"fruit","watermelonSUG.png",11,"tableware","Teller","Fam",0,0,"Wassermelone","Wassermelone",1,672
"15",2,7,183,111,"Exp","Baseline",4,"musical instruments","harpBAS.png",0,"0","Prönke","Untrained",0,0,"Harfe","Harfe",1,651
"15",2,7,186,27,"Exp","SemUnRelG",1,"animals","wolfSUG.png",6,"furniture","Stuhl","Fam",0,0,"Wolf","Wolf",1,638
"15",2,7,192,42,"Exp","SemUnRelG",7,"transportation","helicopterSUG.png",8,"human head","Ohr","Fam",0,0,"Hubschrauber","Hubschrauber",1,1466
"15",2,7,194,8,"Exp","SemRelG",8,"human head","eyebrowSRG.png",8,"human head","Ohr","Fam",0,0,"Augenbraue","Augenbraue",1,756
"15",2,7,195,119,"Exp","Baseline",14,"electronic devices","radioBAS.png",0,"0","Plümme","Untrained",0,0,"Radio","Radio",1,858
"15",2,7,198,4,"Exp","SemRelG",1,"animals","goatSRG.png",1,"animals","Pferd","Fam",0,0,"Ziege","Ziege",1,800
"15",2,7,199,108,"Exp","Baseline",11,"tableware","forkBAS.png",0,"0","Krülp","Untrained",0,0,"Gabel","Gabel",1,1534
"15",2,7,204,29,"Exp","SemUnRelG",8,"human head","beardSUG.png",5,"fruit","Apfel","Fam",0,0,"Bart","Bart",1,1039
"15",2,7,208,99,"Exp","Baseline",1,"animals","wolfBAS.png",0,"0","Wark","Untrained",0,0,"Wolf","Wolf",1,635
"15",2,7,209,34,"Exp","SemUnRelG",11,"tableware","spoonSUG.png",15,"plants","Kaktus","Fam",0,0,"Löffel","Löffel",1,913
"15",2,8,215,16,"Exp","SemRelG",5,"fruit","watermelonSRG.png",5,"fruit","Apfel","Fam",0,0,"Wassermelone","Wassermelone",1,672
"15",2,8,216,101,"Exp","Baseline",8,"human head","beardBAS.png",0,"0","Flerst","Untrained",0,0,"Bart","Bart",1,850
"15",2,8,226,103,"Exp","Baseline",8,"human head","chinBAS.png",0,"0","Jaste","Untrained",0,0,"Kinn","Kinn",1,874
"15",2,8,232,14,"Exp","SemRelG",3,"vegetables","broccoliSRG.png",3,"vegetables","Tomate","Fam",0,0,"Brokkoli","Brokkoli",1,683
"15",2,8,236,5,"Exp","SemRelG",8,"human head","beardSRG.png",8,"human head","Auge","Fam",0,0,"Bart","Bart",1,1005
"15",2,9,241,12,"Exp","SemRelG",11,"tableware","forkSRG.png",11,"tableware","Glas","Fam",0,0,"Gabel","Gabel",1,664
"15",2,9,245,21,"Exp","SemRelG",12,"shapes","rectangleSRG.png",12,"shapes","Stern","Fam",0,0,"Rechteck","Rechteck",1,1275
"15",2,9,248,31,"Exp","SemUnRelG",8,"human head","chinSUG.png",9,"drinks","Kaffee","Fam",0,0,"Kinn","Kinn",1,1065
"15",2,9,249,2,"Exp","SemRelG",1,"animals","giraffeSRG.png",1,"animals","Hund","Fam",0,0,"Giraffe","Giraffe",1,648
"15",2,9,250,110,"Exp","Baseline",3,"vegetables","broccoliBAS.png",0,"0","Trange","Untrained",0,0,"Brokkoli","Brokkoli",1,882
"15",2,9,254,15,"Exp","SemRelG",4,"musical instruments","harpSRG.png",4,"musical instruments","Gitarre","Fam",0,0,"Harfe","Harfe",1,659
"15",2,9,260,28,"Exp","SemUnRelG",1,"animals","goatSUG.png",10,"clothes","Mantel","Fam",0,0,"Ziege","Ziege",1,612
"15",2,9,262,107,"Exp","Baseline",11,"tableware","jugBAS.png",0,"0","Tohm","Untrained",0,0,"Krug","Krug",1,748
"15",2,9,264,38,"Exp","SemUnRelG",3,"vegetables","broccoliSUG.png",1,"animals","Pferd","Fam",0,0,"Brokkoli","Brokkoli",1,748
"15",2,9,270,26,"Exp","SemUnRelG",1,"animals","giraffeSUG.png",11,"tableware","Tasse","Fam",0,0,"Giraffe","Giraffe",1,635
"15",2,10,275,10,"Exp","SemRelG",11,"tableware","spoonSRG.png",11,"tableware","Tasse","Fam",0,0,"Löffel","Löffel",1,853
"15",2,10,284,102,"Exp","Baseline",8,"human head","moustacheBAS.png",0,"0","Laht","Untrained",0,0,"Schnurrbart","Schnurrbart",1,782
"15",2,10,286,41,"Exp","SemUnRelG",6,"furniture","shelvesSUG.png",1,"animals","Kuh","Fam",0,0,"Regal","Regal",1,1028
"15",2,10,288,120,"Exp","Baseline",15,"plants","ivyBAS.png",0,"0","Funne","Untrained",0,0,"Efeu","Efeu",1,724
"15",2,10,294,47,"Exp","SemUnRelG",14,"electronic devices","radioSUG.png",8,"human head","Mund","Fam",0,0,"Radio","Radio",1,667
"15",2,10,297,118,"Exp","Baseline",13,"insects","spiderBAS.png",0,"0","Riel","Untrained",0,0,"Spinne","Spinne",1,544
"16",4,1,6,13,"Exp","SemRelG",1,"animals","wolfSRG.png",1,"animals","Kuh","Fam",0,0,"Wolf","Wolf",1,586
"16",4,1,8,43,"Exp","SemUnRelG",8,"human head","chinSUG.png",9,"drinks","Kaffee","Fam",0,0,"Kinn","Kinn",1,1204
"16",4,1,12,116,"Exp","Baseline",10,"clothes","sockBAS.png",0,"0","Schnist","Untrained",0,0,"Socke","Socke",1,803
"16",4,1,13,27,"Exp","SemUnRelG",6,"furniture","stoolSUG.png",15,"plants","Blume","Fam",0,0,"Hocker","Hocker",1,900
"16",4,1,16,113,"Exp","Baseline",5,"fruit","peachBAS.png",0,"0","Lüfze","Untrained",0,0,"Pfirsich","Pfirsich",1,952
"16",4,1,17,37,"Exp","SemUnRelG",1,"animals","wolfSUG.png",6,"furniture","Stuhl","Fam",0,0,"Wolf","Wolf",1,583
"16",4,1,20,118,"Exp","Baseline",12,"shapes","triangleBAS.png",0,"0","Nörre","Untrained",0,0,"Dreieck","Dreieck",1,821
"16",4,1,21,39,"Exp","SemUnRelG",3,"vegetables","pumpkinSUG.png",6,"furniture","Schrank","Fam",0,0,"Kürbis","Kürbis",1,950
"16",4,1,25,102,"Exp","Baseline",9,"drinks","wineBAS.png",0,"0","Lirst","Untrained",0,0,"Wein","Wein",1,622
"16",4,1,30,20,"Exp","SemRelG",10,"clothes","sockSRG.png",10,"clothes","Kleid","Fam",0,0,"Socke","Socke",1,706
"16",4,2,34,119,"Exp","Baseline",14,"electronic devices","telephoneBAS.png",0,"0","Pfenk","Untrained",0,0,"Telefon","Telefon",1,952
"16",4,2,35,31,"Exp","SemUnRelG",9,"drinks","cocktailSUG.png",14,"electronic devices","Kamera","Fam",0,0,"Cocktail","Cocktail",1,722
"16",4,2,40,28,"Exp","SemUnRelG",6,"furniture","couchSUG.png",3,"vegetables","Gurke","Fam",0,0,"Sofa","Sofa",1,853
"16",4,2,42,18,"Exp","SemRelG",7,"transportation","planeSRG.png",7,"transportation","Zug","Fam",0,0,"Flugzeug","Flugzeug",1,738
"16",4,2,50,26,"Exp","SemUnRelG",6,"furniture","shelvesSUG.png",1,"animals","Kuh","Fam",0,0,"Regal","Regal",1,1183
"16",4,2,53,109,"Exp","Baseline",1,"animals","wolfBAS.png",0,"0","Wark","Untrained",0,0,"Wolf","Wolf",1,672
"16",4,3,74,14,"Exp","SemRelG",2,"tools","hexkeySRG.png",2,"tools","Zange","Fam",0,0,"Inbusschlüssel","Inbusschlüssel",1,1055
"16",4,3,82,17,"Exp","SemRelG",5,"fruit","peachSRG.png",5,"fruit","Orange","Fam",0,0,"Pfirsich","Pfirsich",1,782
"16",4,3,85,40,"Exp","SemUnRelG",4,"musical instruments","saxophoneSUG.png",13,"insects","Schmetterling","Fam",0,0,"Saxophon","Saxophon",1,1309
"16",4,4,91,99,"Exp","Baseline",6,"furniture","stoolBAS.png",0,"0","Anster","Untrained",0,0,"Hocker","Hocker",1,654
"16",4,4,92,41,"Exp","SemUnRelG",5,"fruit","peachSUG.png",6,"furniture","Tisch","Fam",0,0,"Pfirsich","Pfirsich",1,866
"16",4,4,96,34,"Exp","SemUnRelG",13,"insects","spiderSUG.png",11,"tableware","Schüssel","Fam",0,0,"Spinne","Spinne",1,942
"16",4,4,100,38,"Exp","SemUnRelG",2,"tools","hexkeySUG.png",9,"drinks","Tee","Fam",0,0,"Inbusschlüssel","Inbusschlüssel",1,845
"16",4,4,106,111,"Exp","Baseline",3,"vegetables","pumpkinBAS.png",0,"0","Gipke","Untrained",0,0,"Kürbis","Kürbis",1,845
"16",4,4,119,107,"Exp","Baseline",13,"insects","antBAS.png",0,"0","Fatsch","Untrained",0,0,"Ameise","Ameise",1,656
"16",4,5,127,120,"Exp","Baseline",15,"plants","bambooBAS.png",0,"0","Borp","Untrained",0,0,"Bambus","Bambus",1,753
"16",4,5,128,25,"Exp","SemUnRelG",6,"furniture","dresserSUG.png",5,"fruit","Orange","Fam",0,0,"Kommode","Kommode",1,1335
"16",4,5,131,21,"Exp","SemRelG",11,"tableware","jugSRG.png",11,"tableware","Schüssel","Fam",0,0,"Krug","Krug",1,719
"16",4,5,137,114,"Exp","Baseline",7,"transportation","planeBAS.png",0,"0","Nipst","Untrained",0,0,"Flugzeug","Flugzeug",1,583
"16",4,5,138,1,"Exp","SemRelG",6,"furniture","dresserSRG.png",6,"furniture","Tisch","Fam",0,0,"Kommode","Kommode",1,984
"16",4,5,140,33,"Exp","SemUnRelG",13,"insects","locustSUG.png",4,"musical instruments","Klavier","Fam",0,0,"Heuschrecke","Heuschrecke",1,1123
"16",4,5,142,6,"Exp","SemRelG",9,"drinks","wineSRG.png",9,"drinks","Kaffee","Fam",0,0,"Wein","Wein",1,641
"16",4,5,148,45,"Exp","SemUnRelG",11,"tableware","jugSUG.png",13,"insects","Fliege","Fam",0,0,"Krug","Krug",1,759
"16",4,5,150,108,"Exp","Baseline",13,"insects","bumblebeeBAS.png",0,"0","Schrieg","Untrained",0,0,"Hummel","Hummel",1,719
"16",4,6,153,3,"Exp","SemRelG",6,"furniture","stoolSRG.png",6,"furniture","Bett","Fam",0,0,"Hocker","Hocker",1,627
"16",4,6,157,46,"Exp","SemUnRelG",12,"shapes","triangleSUG.png",13,"insects","Libelle","Fam",0,0,"Dreieck","Dreieck",1,743
"16",4,6,161,44,"Exp","SemUnRelG",10,"clothes","sockSUG.png",9,"drinks","Milch","Fam",0,0,"Socke","Socke",1,612
"16",4,6,166,100,"Exp","Baseline",6,"furniture","couchBAS.png",0,"0","Nipst","Untrained",0,0,"Sofa","Sofa",1,693
"16",4,6,172,22,"Exp","SemRelG",12,"shapes","triangleSRG.png",12,"shapes","Kreis","Fam",0,0,"Dreieck","Dreieck",1,738
"16",4,6,177,48,"Exp","SemUnRelG",15,"plants","bambooSUG.png",6,"furniture","Bett","Fam",0,0,"Bambus","Bambus",1,890
"16",4,7,185,30,"Exp","SemUnRelG",9,"drinks","wineSUG.png",8,"human head","Nase","Fam",0,0,"Wein","Wein",1,675
"16",4,7,196,7,"Exp","SemRelG",9,"drinks","cocktailSRG.png",9,"drinks","Wasser","Fam",0,0,"Cocktail","Cocktail",1,643
"16",4,7,198,105,"Exp","Baseline",13,"insects","locustBAS.png",0,"0","Koss","Untrained",0,0,"Heuschrecke","Heuschrecke",1,963
"16",4,7,201,47,"Exp","SemUnRelG",14,"electronic devices","telephoneSUG.png",9,"drinks","Wasser","Fam",0,0,"Telefon","Telefon",1,609
"16",4,7,207,104,"Exp","Baseline",9,"drinks","juiceBAS.png",0,"0","Grölf","Untrained",0,0,"Saft","Saft",1,1574
"16",4,7,208,12,"Exp","SemRelG",13,"insects","bumblebeeSRG.png",13,"insects","Käfer","Fam",0,0,"Hummel","Hummel",1,622
"16",4,8,220,32,"Exp","SemUnRelG",9,"drinks","juiceSUG.png",7,"transportation","Zug","Fam",0,0,"Saft","Saft",1,672
"16",4,8,222,23,"Exp","SemRelG",14,"electronic devices","telephoneSRG.png",14,"electronic devices","Kamera","Fam",0,0,"Telefon","Telefon",1,703
"16",4,8,226,11,"Exp","SemRelG",13,"insects","antSRG.png",13,"insects","Libelle","Fam",0,0,"Ameise","Ameise",1,777
"16",4,8,230,5,"Exp","SemRelG",9,"drinks","beerSRG.png",9,"drinks","Tee","Fam",0,0,"Bier","Bier",1,918
"16",4,8,234,19,"Exp","SemRelG",8,"human head","chinSRG.png",8,"human head","Nase","Fam",0,0,"Kinn","Kinn",1,973
"16",4,8,235,110,"Exp","Baseline",2,"tools","hexkeyBAS.png",0,"0","Braktel","Untrained",0,0,"Inbusschlüssel","Inbusschlüssel",1,835
"16",4,8,239,106,"Exp","Baseline",13,"insects","spiderBAS.png",0,"0","Riel","Untrained",0,0,"Spinne","Spinne",1,717
"16",4,9,251,101,"Exp","Baseline",9,"drinks","beerBAS.png",0,"0","Tirk","Untrained",0,0,"Bier","Bier",1,662
"16",4,9,257,36,"Exp","SemUnRelG",13,"insects","bumblebeeSUG.png",10,"clothes","Kleid","Fam",0,0,"Hummel","Hummel",1,580
"16",4,9,258,16,"Exp","SemRelG",4,"musical instruments","saxophoneSRG.png",4,"musical instruments","Klavier","Fam",0,0,"Saxophon","Saxophon",1,782
"16",4,9,259,97,"Exp","Baseline",6,"furniture","dresserBAS.png",0,"0","Ziftel","Untrained",0,0,"Kommode","Kommode",1,1029
"16",4,9,263,117,"Exp","Baseline",11,"tableware","jugBAS.png",0,"0","Limster","Untrained",0,0,"Krug","Krug",1,662
"16",4,9,266,15,"Exp","SemRelG",3,"vegetables","pumpkinSRG.png",3,"vegetables","Gurke","Fam",0,0,"Kürbis","Kürbis",1,683
"16",4,9,267,103,"Exp","Baseline",9,"drinks","cocktailBAS.png",0,"0","Schomkel","Untrained",0,0,"Cocktail","Cocktail",1,756
"16",4,9,270,24,"Exp","SemRelG",15,"plants","bambooSRG.png",15,"plants","Blume","Fam",0,0,"Bambus","Bambus",1,710
"16",4,10,271,35,"Exp","SemUnRelG",13,"insects","antSUG.png",12,"shapes","Kreis","Fam",0,0,"Ameise","Ameise",1,622
"16",4,10,273,98,"Exp","Baseline",6,"furniture","shelvesBAS.png",0,"0","Rilmung","Untrained",0,0,"Regal","Regal",1,759
"16",4,10,277,8,"Exp","SemRelG",9,"drinks","juiceSRG.png",9,"drinks","Milch","Fam",0,0,"Saft","Saft",1,989
"16",4,10,278,115,"Exp","Baseline",8,"human head","chinBAS.png",0,"0","Jaste","Untrained",0,0,"Kinn","Kinn",1,614
"16",4,10,279,42,"Exp","SemUnRelG",7,"transportation","planeSUG.png",13,"insects","Käfer","Fam",0,0,"Flugzeug","Flugzeug",1,651
"16",4,10,281,10,"Exp","SemRelG",13,"insects","spiderSRG.png",13,"insects","Fliege","Fam",0,0,"Spinne","Spinne",1,981
"16",4,10,285,2,"Exp","SemRelG",6,"furniture","shelvesSRG.png",6,"furniture","Stuhl","Fam",0,0,"Regal","Regal",1,950
"16",4,10,287,29,"Exp","SemUnRelG",9,"drinks","beerSUG.png",2,"tools","Zange","Fam",0,0,"Bier","Bier",1,703
"16",4,10,290,112,"Exp","Baseline",4,"musical instruments","saxophoneBAS.png",0,"0","Batte","Untrained",0,0,"Saxophon","Saxophon",1,688
"16",4,10,291,9,"Exp","SemRelG",13,"insects","locustSRG.png",13,"insects","Schmetterling","Fam",0,0,"Heuschrecke","Heuschrecke",1,1267
"16",4,10,295,4,"Exp","SemRelG",6,"furniture","couchSRG.png",6,"furniture","Schrank","Fam",0,0,"Sofa","Sofa",1,617
"17",5,1,2,7,"Exp","SemRelG",7,"transportation","bicycleSRG.png",7,"transportation","Schiff","Fam",0,0,"Fahrrad","Fahrrad",1,1013
"17",5,1,3,38,"Exp","SemUnRelG",2,"tools","wrenchSUG.png",3,"vegetables","Zwiebel","Fam",0,0,"Schraubenschlüssel","Schraubenschhlüssel",1,782
"17",5,1,9,23,"Exp","SemRelG",14,"electronic devices","laptopSRG.png",14,"electronic devices","Drucker","Fam",0,0,"Laptop","Laptop",1,1380
"17",5,1,12,104,"Exp","Baseline",7,"transportation","planeBAS.png",0,"0","Garpe","Untrained",0,0,"Flugzeug","Flugzeug",1,690
"17",5,1,15,48,"Exp","SemUnRelG",15,"plants","fernSUG.png",10,"clothes","Rock","Fam",0,0,"Farn","Farn",1,926
"17",5,1,16,97,"Exp","Baseline",3,"vegetables","eggplantBAS.png",0,"0","Schnilp","Untrained",0,0,"Aubergine","Aubergine",1,816
"17",5,1,23,46,"Exp","SemUnRelG",13,"insects","bumblebeeSUG.png",10,"clothes","Kleid","Fam",0,0,"Hummel","Hummel",1,1104
"17",5,1,24,20,"Exp","SemRelG",11,"tableware","forkSRG.png",11,"tableware","Glas","Fam",0,0,"Gabel","Gabel",1,845
"17",5,1,28,3,"Exp","SemRelG",3,"vegetables","paprikaSRG.png",3,"vegetables","Kartoffel","Fam",0,0,"Paprika","Paprika",1,738
"17",5,1,29,108,"Exp","Baseline",10,"clothes","sockBAS.png",0,"0","Schnist","Untrained",0,0,"Socke","Socke",1,680
"17",5,2,35,31,"Exp","SemUnRelG",7,"transportation","bicycleSUG.png",15,"plants","Moos","Fam",0,0,"Fahrrad","Fahrrad",1,672
"17",5,2,38,98,"Exp","Baseline",3,"vegetables","broccoliBAS.png",0,"0","Trange","Untrained",0,0,"Brokkoli","Brokkoli",1,829
"17",5,2,39,45,"Exp","SemUnRelG",12,"shapes","cubeSUG.png",7,"transportation","Schiff","Fam",0,0,"Würfel","Würfel",1,1125
"17",5,2,45,9,"Exp","SemRelG",10,"clothes","jacketSRG.png",10,"clothes","Hose","Fam",0,0,"Jacke","Jacke",1,732
"17",5,2,50,119,"Exp","Baseline",14,"electronic devices","laptopBAS.png",0,"0","Nelft","Untrained",0,0,"Laptop","Laptop",1,858
"17",5,2,55,106,"Exp","Baseline",10,"clothes","suitBAS.png",0,"0","Bolst","Untrained",0,0,"Anzug","Anzug",1,939
"17",5,2,59,27,"Exp","SemUnRelG",3,"vegetables","paprikaSUG.png",14,"electronic devices","Drucker","Fam",0,0,"Paprika","Paprika",1,683
"17",5,2,60,5,"Exp","SemRelG",7,"transportation","boatSRG.png",7,"transportation","Auto","Fam",0,0,"Boot","Boot",1,832
"17",5,3,68,24,"Exp","SemRelG",15,"plants","fernSRG.png",15,"plants","Moos","Fam",0,0,"Farn","Zzz",0,735
"17",5,3,75,105,"Exp","Baseline",10,"clothes","jacketBAS.png",0,"0","Schnerp","Untrained",0,0,"Jacke","Jacke",1,706
"17",5,3,76,22,"Exp","SemRelG",13,"insects","bumblebeeSRG.png",13,"insects","Käfer","Fam",0,0,"Hummel","Hummel",1,662
"17",5,3,80,4,"Exp","SemRelG",3,"vegetables","pumpkinSRG.png",3,"vegetables","Gurke","Fam",0,0,"Kürbis","Kürbis",1,1212
"17",5,3,86,110,"Exp","Baseline",2,"tools","wrenchBAS.png",0,"0","Lörme","Untrained",0,0,"Schraubenschlüssel","Schraubenschlüssel",1,924
"17",5,3,88,16,"Exp","SemRelG",5,"fruit","kiwiSRG.png",5,"fruit","Banane","Fam",0,0,"Kiwi","Kiwi",1,701
"17",5,3,90,99,"Exp","Baseline",3,"vegetables","paprikaBAS.png",0,"0","Kremster","Untrained",0,0,"Paprika","Paprika",1,731
"17",5,4,99,8,"Exp","SemRelG",7,"transportation","planeSRG.png",7,"transportation","Zug","Fam",0,0,"Flugzeug","Flugzeug",1,1212
"17",5,4,107,36,"Exp","SemUnRelG",10,"clothes","sockSUG.png",9,"drinks","Milch","Fam",0,0,"Socke","Socke",1,549
"17",5,4,111,100,"Exp","Baseline",3,"vegetables","pumpkinBAS.png",0,"0","Gipke","Untrained",0,0,"Kürbis","Kürbis",1,1149
"17",5,4,112,6,"Exp","SemRelG",7,"transportation","helicopterSRG.png",7,"transportation","Bus","Fam",0,0,"Hubschrauber","Hubschrauber",1,840
"17",5,4,117,11,"Exp","SemRelG",10,"clothes","shirtSRG.png",10,"clothes","Rock","Fam",0,0,"Hemd","Hemd",1,656
"17",5,4,119,47,"Exp","SemUnRelG",14,"electronic devices","laptopSUG.png",3,"vegetables","Kartoffel","Fam",0,0,"Laptop","Laptop",1,751
"17",5,5,121,13,"Exp","SemRelG",1,"animals","goatSRG.png",1,"animals","Pferd","Fam",0,0,"Ziege","Ziege",1,942
"17",5,5,123,29,"Exp","SemUnRelG",7,"transportation","boatSUG.png",5,"fruit","Banane","Fam",0,0,"Boot","Boot",1,1076
"17",5,5,124,112,"Exp","Baseline",5,"fruit","kiwiBAS.png",0,"0","Gaspe","Untrained",0,0,"Kiwi","Kiwi",1,538
"17",5,5,132,116,"Exp","Baseline",11,"tableware","forkBAS.png",0,"0","Krülp","Untrained",0,0,"Gabel","Gabel",1,1115
"17",5,5,133,30,"Exp","SemUnRelG",7,"transportation","helicopterSUG.png",8,"human head","Ohr","Fam",0,0,"Hubschrauber","Hubschrauber",1,727
"17",5,5,136,111,"Exp","Baseline",4,"musical instruments","tromboneBAS.png",0,"0","Nipter","Untrained",0,0,"Posaune","Posaune",1,926
"17",5,5,142,40,"Exp","SemUnRelG",5,"fruit","kiwiSUG.png",10,"clothes","Hose","Fam",0,0,"Kiwi","Kiwi",1,599
"17",5,5,148,18,"Exp","SemRelG",8,"human head","eyebrowSRG.png",8,"human head","Ohr","Fam",0,0,"Augenbraue","Augenbraue",1,756
"17",5,6,152,103,"Exp","Baseline",7,"transportation","bicycleBAS.png",0,"0","Belsk","Untrained",0,0,"Fahrrad","Fahrrad",1,617
"17",5,6,159,42,"Exp","SemUnRelG",8,"human head","eyebrowSUG.png",3,"vegetables","Tomate","Fam",0,0,"Augenbraue","Augenbraue",1,821
"17",5,6,160,113,"Exp","Baseline",6,"furniture","couchBAS.png",0,"0","Nipst","Untrained",0,0,"Sofa","Sofa",1,911
"17",5,6,167,35,"Exp","SemUnRelG",10,"clothes","shirtSUG.png",12,"shapes","Trapez","Fam",0,0,"Hemd","Hemd",1,900
"17",5,6,178,10,"Exp","SemRelG",10,"clothes","suitSRG.png",10,"clothes","Mantel","Fam",0,0,"Anzug","Glienst",0,913
"17",5,6,180,39,"Exp","SemUnRelG",4,"musical instruments","tromboneSUG.png",7,"transportation","Auto","Fam",0,0,"Posaune","Posaune",1,635
"17",5,7,189,37,"Exp","SemUnRelG",1,"animals","goatSUG.png",10,"clothes","Mantel","Fam",0,0,"Ziege","Ziege",1,570
"17",5,7,193,32,"Exp","SemUnRelG",7,"transportation","planeSUG.png",13,"insects","Käfer","Fam",0,0,"Flugzeug","Flugzeug",1,717
"17",5,7,199,109,"Exp","Baseline",1,"animals","goatBAS.png",0,"0","Zonte","Untrained",0,0,"Ziege","Ziege",1,609
"17",5,7,200,15,"Exp","SemRelG",4,"musical instruments","tromboneSRG.png",4,"musical instruments","Trommel","Fam",0,0,"Posaune","Posaune",1,688
"17",5,7,201,44,"Exp","SemUnRelG",11,"tableware","forkSUG.png",7,"transportation","Bus","Fam",0,0,"Gabel","Gabel",1,984
"17",5,7,203,118,"Exp","Baseline",13,"insects","bumblebeeBAS.png",0,"0","Schrieg","Untrained",0,0,"Hummel","Hummel",1,627
"17",5,7,204,1,"Exp","SemRelG",3,"vegetables","eggplantSRG.png",3,"vegetables","Zwiebel","Fam",0,0,"Aubergine","Aubergine",1,586
"17",5,7,208,12,"Exp","SemRelG",10,"clothes","sockSRG.png",10,"clothes","Kleid","Fam",0,0,"Socke","Socke",1,580
"17",5,7,210,114,"Exp","Baseline",8,"human head","eyebrowBAS.png",0,"0","Danpel","Untrained",0,0,"Augenbraue","Augenbraue",1,698
"17",5,8,214,101,"Exp","Baseline",7,"transportation","boatBAS.png",0,"0","Krebbel","Untrained",0,0,"Boot","Boot",1,735
"17",5,8,217,41,"Exp","SemUnRelG",6,"furniture","couchSUG.png",3,"vegetables","Gurke","Fam",0,0,"Sofa","Sofa",1,732
"17",5,8,220,14,"Exp","SemRelG",2,"tools","wrenchSRG.png",2,"tools","Axt","Fam",0,0,"Schraubenschlüssel","Schraubenschlüssel",1,863
"17",5,8,225,25,"Exp","SemUnRelG",3,"vegetables","eggplantSUG.png",2,"tools","Axt","Fam",0,0,"Aubergine","Aubergine",1,646
"17",5,8,231,120,"Exp","Baseline",15,"plants","fernBAS.png",0,"0","Krutt","Untrained",0,0,"Farn","Farn",1,800
"17",5,8,234,33,"Exp","SemUnRelG",10,"clothes","jacketSUG.png",4,"musical instruments","Trommel","Fam",0,0,"Jacke","Jacke",1,806
"17",5,8,237,115,"Exp","Baseline",9,"drinks","juiceBAS.png",0,"0","Grölf","Untrained",0,0,"Saft","Saft",1,719
"17",5,9,246,26,"Exp","SemUnRelG",3,"vegetables","broccoliSUG.png",1,"animals","Pferd","Fam",0,0,"Brokkoli","Brokkoli",1,706
"17",5,9,251,102,"Exp","Baseline",7,"transportation","helicopterBAS.png",0,"0","Faum","Untrained",0,0,"Hubschrauber","Hubschrauber",1,685
"17",5,9,264,107,"Exp","Baseline",10,"clothes","shirtBAS.png",0,"0","Kritte","Untrained",0,0,"Hemd","Hemd",1,790
"17",5,9,265,21,"Exp","SemRelG",12,"shapes","cubeSRG.png",12,"shapes","Trapez","Fam",0,0,"Würfel","Würfel",1,934
"17",5,10,273,43,"Exp","SemUnRelG",9,"drinks","juiceSUG.png",7,"transportation","Zug","Fam",0,0,"Saft","Saft",1,994
"17",5,10,280,2,"Exp","SemRelG",3,"vegetables","broccoliSRG.png",3,"vegetables","Tomate","Fam",0,0,"Brokkoli","Brokkoli",1,675
"17",5,10,286,117,"Exp","Baseline",12,"shapes","cubeBAS.png",0,"0","Struge","Untrained",0,0,"Würfel","Würfel",1,966
"17",5,10,287,34,"Exp","SemUnRelG",10,"clothes","suitSUG.png",11,"tableware","Glas","Fam",0,0,"Anzug","Anzug",1,669
"17",5,10,288,17,"Exp","SemRelG",6,"furniture","couchSRG.png",6,"furniture","Schrank","Fam",0,0,"Sofa","Sofa",1,591
"17",5,10,294,28,"Exp","SemUnRelG",3,"vegetables","pumpkinSUG.png",6,"furniture","Schrank","Fam",0,0,"Kürbis","Kürbis",1,627
"17",5,10,300,19,"Exp","SemRelG",9,"drinks","juiceSRG.png",9,"drinks","Milch","Fam",0,0,"Saft","Saft",1,622
"20",5,1,2,7,"Exp","SemRelG",7,"transportation","bicycleSRG.png",7,"transportation","Schiff","Fam",0,0,"Fahrrad","Fahrrad",1,994
"20",5,1,3,38,"Exp","SemUnRelG",2,"tools","wrenchSUG.png",3,"vegetables","Zwiebel","Fam",0,0,"Schraubenschlüssel","Schraubendreher",0,926
"20",5,1,9,23,"Exp","SemRelG",14,"electronic devices","laptopSRG.png",14,"electronic devices","Drucker","Fam",0,0,"Laptop","Laptop",1,1152
"20",5,1,12,104,"Exp","Baseline",7,"transportation","planeBAS.png",0,"0","Garpe","Untrained",0,0,"Flugzeug","Flugzeug",1,803
"20",5,1,15,48,"Exp","SemUnRelG",15,"plants","fernSUG.png",10,"clothes","Rock","Fam",0,0,"Farn","Farn",1,685
"20",5,1,16,97,"Exp","Baseline",3,"vegetables","eggplantBAS.png",0,"0","Schnilp","Untrained",0,0,"Aubergine","Aubergine",1,782
"20",5,1,23,46,"Exp","SemUnRelG",13,"insects","bumblebeeSUG.png",10,"clothes","Kleid","Fam",0,0,"Hummel","Hummel",1,761
"20",5,1,24,20,"Exp","SemRelG",11,"tableware","forkSRG.png",11,"tableware","Glas","Fam",0,0,"Gabel","Gabel",1,745
"20",5,1,28,3,"Exp","SemRelG",3,"vegetables","paprikaSRG.png",3,"vegetables","Kartoffel","Fam",0,0,"Paprika","Paprika",1,745
"20",5,1,29,108,"Exp","Baseline",10,"clothes","sockBAS.png",0,"0","Schnist","Untrained",0,0,"Socke","Socke",1,641
"20",5,2,35,31,"Exp","SemUnRelG",7,"transportation","bicycleSUG.png",15,"plants","Moos","Fam",0,0,"Fahrrad","Fahrrad",1,745
"20",5,2,38,98,"Exp","Baseline",3,"vegetables","broccoliBAS.png",0,"0","Trange","Untrained",0,0,"Brokkoli","Brokkoli",1,1364
"20",5,2,39,45,"Exp","SemUnRelG",12,"shapes","cubeSUG.png",7,"transportation","Schiff","Fam",0,0,"Würfel","Würfel",1,1250
"20",5,2,45,9,"Exp","SemRelG",10,"clothes","jacketSRG.png",10,"clothes","Hose","Fam",0,0,"Jacke","Jacke",1,1178
"20",5,2,50,119,"Exp","Baseline",14,"electronic devices","laptopBAS.png",0,"0","Nelft","Untrained",0,0,"Laptop","Computer",0,997
"20",5,2,55,106,"Exp","Baseline",10,"clothes","suitBAS.png",0,"0","Bolst","Untrained",0,0,"Anzug","Anzug",1,769
"20",5,2,59,27,"Exp","SemUnRelG",3,"vegetables","paprikaSUG.png",14,"electronic devices","Drucker","Fam",0,0,"Paprika","Paprika",1,675
"20",5,2,60,5,"Exp","SemRelG",7,"transportation","boatSRG.png",7,"transportation","Auto","Fam",0,0,"Boot","Boot",1,1595
"20",5,3,68,24,"Exp","SemRelG",15,"plants","fernSRG.png",15,"plants","Moos","Fam",0,0,"Farn","Farn",1,1112
"20",5,3,75,105,"Exp","Baseline",10,"clothes","jacketBAS.png",0,"0","Schnerp","Untrained",0,0,"Jacke","Jacke",1,667
"20",5,3,76,22,"Exp","SemRelG",13,"insects","bumblebeeSRG.png",13,"insects","Käfer","Fam",0,0,"Hummel","Hummel",1,646
"20",5,3,80,4,"Exp","SemRelG",3,"vegetables","pumpkinSRG.png",3,"vegetables","Gurke","Fam",0,0,"Kürbis","Kürbis",1,738
"20",5,3,86,110,"Exp","Baseline",2,"tools","wrenchBAS.png",0,"0","Lörme","Untrained",0,0,"Schraubenschlüssel","Schraubendreher",0,1141
"20",5,3,88,16,"Exp","SemRelG",5,"fruit","kiwiSRG.png",5,"fruit","Banane","Fam",0,0,"Kiwi","Kiwi",1,656
"20",5,3,90,99,"Exp","Baseline",3,"vegetables","paprikaBAS.png",0,"0","Kremster","Untrained",0,0,"Paprika","Paprika",1,673
"20",5,4,99,8,"Exp","SemRelG",7,"transportation","planeSRG.png",7,"transportation","Zug","Fam",0,0,"Flugzeug","Flugzeug",1,735
"20",5,4,107,36,"Exp","SemUnRelG",10,"clothes","sockSUG.png",9,"drinks","Milch","Fam",0,0,"Socke","Socke",1,620
"20",5,4,111,100,"Exp","Baseline",3,"vegetables","pumpkinBAS.png",0,"0","Gipke","Untrained",0,0,"Kürbis","Kürbis",1,714
"20",5,4,112,6,"Exp","SemRelG",7,"transportation","helicopterSRG.png",7,"transportation","Bus","Fam",0,0,"Hubschrauber","Hubschrauber",1,984
"20",5,4,117,11,"Exp","SemRelG",10,"clothes","shirtSRG.png",10,"clothes","Rock","Fam",0,0,"Hemd","Hemd",1,614
